time,seconds_elapsed,z,y,x
1705061542090524000,0.02552392578125,-0.37182197281420226,-0.0075146134138107295,0.04289630791842937
1705061542100464000,0.035464111328125,-0.23634506941922007,-0.062432198515534394,-0.12025953358411788
1705061542110404000,0.045404052734375,-0.11861008587665856,-0.13755962795317173,-0.22801877429634332
1705061542120343800,0.05534375,-0.006533785682916641,-0.17728198201060294,-0.35104806485474105
1705061542130284000,0.065283935546875,0.2049643541842699,-0.16763970891833305,-0.4018357105448842
1705061542140224000,0.07522412109375,0.3453980762690306,-0.14030103561580182,-0.41280601737052197
1705061542150164200,0.085164306640625,0.3898889599025249,-0.08484627489745616,-0.5240756042912602
1705061542160104000,0.09510400390625,0.5383586889266967,-0.047798693007230754,-0.5672846314206719
1705061542170044000,0.1050439453125,0.6996903106767683,0.026010055047273634,-0.5712129107803106
1705061542179984100,0.114984130859375,0.7416933960825205,0.09278174407184124,-0.5478235596254467
1705061542189924000,0.124924072265625,0.6498135692864656,0.16611936748325823,-0.5981950257301331
1705061542199863800,0.13486376953125,0.5940514231193811,0.20159341644644735,-0.6459305903732776
1705061542209804000,0.144803955078125,0.5572147805660963,0.17644962283968924,-0.7327411510810256
1705061542219745000,0.1547451171875,0.5351146655041724,0.147878192871809,-0.8387152619421482
1705061542229685000,0.16468505859375,0.47349020317494867,0.13723521830439567,-0.9278905059546232
1705061542239625000,0.174625,0.35038112537860866,0.20401275254786014,-0.9744225400269031
1705061542249565200,0.184565185546875,0.22216741791963576,0.2298994734764099,-0.9975193379759788
1705061542259505200,0.194505126953125,0.12294899186380207,0.18749884012043475,-0.9368564872205257
1705061542269444900,0.20444482421875,0.07056523608863353,0.15081190823614596,-0.8610816997900604
1705061542279385000,0.214385009765625,0.05691781900823116,0.0784095198482275,-0.7777122194468975
1705061542289325000,0.224324951171875,0.0801619895387441,-0.006317512583732605,-0.6600730974942446
1705061542299265000,0.23426513671875,0.1832454204596579,-0.003774257841706276,-0.4935810973063111
1705061542309205000,0.244205078125,0.26925423633046447,0.060553545162081716,-0.3510018876254558
1705061542319145000,0.25414501953125,0.28718904840648174,0.10038520481288432,-0.2563496735066175
1705061542329085200,0.264085205078125,0.25962942582964893,0.030738837134838104,-0.16062486172020435
1705061542339025000,0.27402490234375,0.27491525776684284,-0.08596271170675754,-0.04795096095949411
1705061542348964900,0.28396484375,0.32938751025386154,-0.14967793577015398,0.07571516619771719
1705061542358905000,0.293905029296875,0.2501362058192491,-0.08664192614257335,0.16131430528908966
1705061542368845000,0.303844970703125,0.0791501821476966,0.008839140015840529,0.20678718569725751
1705061542378786000,0.3137861328125,-0.06152735863029957,0.058787120011448854,0.15896891120672224
1705061542388726000,0.32372607421875,-0.12730123225655407,0.08804127154648303,0.079348554264009
1705061542398666000,0.333666015625,-0.12580836335029452,0.11188099681735038,-0.030033903735876083
1705061542408606000,0.34360595703125,-0.15042086309194563,0.0930529622286558,-0.12920213397443295
1705061542418546000,0.3535458984375,-0.0976765303760767,0.02831599390208721,-0.1490872764006257
1705061542428486100,0.363486083984375,-0.04788512918166816,-0.07154021860063076,-0.07828150955438613
1705061542438426000,0.373426025390625,0.004404372438788414,-0.1472767198473215,0.012307692909240721
1705061542448365800,0.38336572265625,0.038923897156119346,-0.2300426813393831,0.12470569933801888
1705061542458306000,0.39330615234375,0.11690262437164783,-0.2825011828511953,0.25660920122563835
1705061542468246000,0.40324609375,0.13116269345767795,-0.17454992669820785,0.3562342353209853
1705061542478186200,0.413186279296875,0.10769885229449719,-0.00826923117339611,0.3811052033357322
1705061542488126000,0.4231259765625,-0.0005237316131591796,0.14168927510380744,0.2818422805510461
1705061542498066000,0.43306591796875,-0.13485676220264284,0.260776257777214,0.08418751872777938
1705061542508006100,0.443006103515625,-0.2100397212198004,0.28808395141959187,-0.11992109540998935
1705061542517946000,0.452946044921875,-0.26115974066946657,0.19446458747982978,-0.3363404711969197
1705061542527885800,0.4628857421875,-0.3228126984408125,0.03887713540494442,-0.4997380125008523
1705061542537827000,0.4728271484375,-0.3245131091505289,-0.10363397747576236,-0.6426363711334765
1705061542547767000,0.48276708984375,-0.31005905186235905,-0.13666472494006157,-0.7063900275111198
1705061542557707000,0.49270703125,-0.18603928896188734,-0.04581716380119324,-0.667122869875282
1705061542567647000,0.50264697265625,-0.023269268439151346,0.13054887240827082,-0.618285043078661
1705061542577587200,0.512587158203125,0.15151037536170334,0.283870717638731,-0.5662194864071906
1705061542587527000,0.52252685546875,0.2410404606938362,0.3469850531995296,-0.4947529175646603
1705061542597467000,0.532466796875,0.3049439373383298,0.24807167450487613,-0.40407954394891854
1705061542607407000,0.542406982421875,0.3496014097103849,0.1197878244191408,-0.29594387113973497
1705061542617347000,0.55234716796875,0.3276063989907503,0.06537292814254761,-0.16069602726027368
1705061542627286800,0.562286865234375,0.2152858417123556,-0.009610124388337134,-0.00402589451521635
1705061542637227000,0.57222705078125,-0.03169803755581379,-0.11708733328878879,0.1949067782893777
1705061542647167000,0.5821669921875,-0.22497721464335918,-0.18630407737791538,0.33189357479065656
1705061542657107200,0.592107177734375,-0.4101034804135561,-0.07294365565776824,0.21576281157433985
1705061542667047000,0.602046875,-0.3247650380849838,-0.014215572357177733,0.3334808439821005
1705061542676987000,0.61198681640625,-0.0673731620490551,-0.11605039145648478,0.5022678232394159
1705061542686927000,0.621927001953125,0.15921618223236872,-0.2658317876011133,0.6350982307136058
1705061542696867800,0.631867919921875,0.1882066961288452,-0.3145581168472767,0.5752500573419034
1705061542706808000,0.64180810546875,0.13608137209415436,-0.18227555251419544,0.3536610238321125
1705061542716748000,0.651748046875,0.1836649793122895,-0.05995557926893234,0.17625234670192003
1705061542726688000,0.66168798828125,0.316935367372632,0.013915128105878829,0.05780892262905836
1705061542736628000,0.6716279296875,0.4299713794440031,0.22036533693373203,-0.13233473291173575
1705061542746568000,0.68156787109375,0.5866828671127557,0.2346785244464874,-0.13367124221250415
1705061542756508200,0.691508056640625,0.7031196275383234,0.18658698597252368,-0.21365882503241299
1705061542766448000,0.7014482421875,0.6202122117489576,0.28695348608493804,-0.4082067068815231
1705061542776387800,0.711387939453125,0.5089455474376678,0.32386955054998395,-0.6259348271794617
1705061542786328000,0.721328125,0.4598819490611553,0.3008160072207451,-0.7688536440782249
1705061542796268000,0.73126806640625,0.4595101931393146,0.2520733113616705,-0.8525836282968521
1705061542806208300,0.741208251953125,0.38987843850851056,0.19495032517015934,-0.9173853324227035
1705061542816148000,0.75114794921875,0.3470060959875583,0.15960545554459094,-0.9779311326697468
1705061542826088000,0.761087890625,0.37973230754733084,0.09714519997835158,-1.0032302629686891
1705061542836028200,0.771028076171875,0.4209726649522781,0.1737760197162628,-1.1009154150426388
1705061542845968100,0.780968017578125,0.47759062423110005,0.11499766753315925,-1.021893754645437
1705061542855909000,0.7909091796875,0.45072950531244277,0.23519465727508065,-1.0699991755142808
1705061542865849000,0.80084912109375,0.45230771441459655,0.16552257063388823,-0.9983670408464967
1705061542875788800,0.810788818359375,0.5042740484952927,0.20721768606901167,-0.9805890998326241
1705061542885729000,0.82072900390625,0.46384855113718654,0.362491834411025,-0.9283652838595211
1705061542895669000,0.8306689453125,0.43524080774690954,0.35726153254210946,-0.8060922184959054
1705061542905609200,0.840609130859375,0.3896025441765785,0.5062900644928217,-0.7087715158201754
1705061542915549000,0.850548828125,0.2769476403772831,0.621778145891428,-0.6551461624860763
1705061542925489000,0.860489013671875,0.22114212999250737,0.5390057546585798,-0.48511780486553907
1705061542935429000,0.87042919921875,0.10403678612299262,0.624694910120964,-0.4136005287490785
1705061542945369000,0.880369140625,0.07417699684500693,0.5187883115381002,-0.22519655648246406
1705061542955308800,0.890308837890625,0.0016845920860767364,0.5246832147955894,-0.1878402009040117
1705061542965249000,0.9002490234375,-0.08736271469779312,0.5670709886699915,-0.13090119297727942
1705061542975189000,0.91018896484375,-0.10784187749437987,0.5209937126278877,-0.09912819048911332
1705061542985129200,0.920129150390625,-0.12346855875849723,0.633868981179595,-0.14777970093339682
1705061542995069000,0.93006884765625,-0.18497538605742156,0.6806810012370348,-0.19063626136332748
1705061543005010200,0.94001025390625,-0.21792510417476296,0.6741396167695521,-0.3129001205071807
1705061543014950100,0.9499501953125,-0.27505386251993474,0.6337590910643339,-0.4647717669293284
1705061543024890000,0.95989013671875,-0.4675974918745458,0.46910395091474055,-0.6577070990152657
1705061543034830300,0.969830322265625,-0.8766893110275268,0.15338029741942882,-0.9436530154928564
1705061543044770300,0.979770263671875,-1.5957342374503611,-0.24440087703764438,-1.277536595056951
1705061543054710300,0.989710205078125,-2.2956581376872953,-0.6944318786919117,-1.6185222617112098
1705061543064650200,0.999650146484375,-2.6701053444385527,-1.062434585478902,-1.8253486103750765
1705061543074590200,1.009590087890625,-2.6250001282989976,-1.3150257832348347,-1.9420505976080893
1705061543084530400,1.019530517578125,-2.265328465875238,-1.3447726867228746,-1.9368623813152313
1705061543094470100,1.02947021484375,-1.951924341368675,-1.0905220313221216,-1.8122870303586125
1705061543104410000,1.03941015625,-1.6332489984609186,-0.6260755508244037,-1.6361143247641623
1705061543114350300,1.049350341796875,-1.0577342988334595,-0.1805570581585169,-1.4874880900040268
1705061543124290300,1.059290283203125,-0.3476091033820063,0.0959469301044941,-1.4103542891800402
1705061543134230300,1.069230224609375,0.298300225007534,0.17789514547288418,-1.4318755083754657
1705061543144170200,1.079170166015625,0.7130863833446055,0.1403840377241373,-1.5625857088252901
1705061543154110200,1.089110107421875,1.0716682777702808,0.1677899310439825,-1.7334781359292566
1705061543164051200,1.09905126953125,1.45217770716995,0.19063480005860328,-1.8374518667533992
1705061543173991200,1.1089912109375,1.7916965161420404,0.2724240254729986,-1.8902556745715438
1705061543183931400,1.118931396484375,1.9259516957223415,0.42906127886176104,-1.890000676897168
1705061543193871400,1.128871337890625,1.868430065602064,0.6474380723267793,-1.8574112434595822
1705061543203811000,1.13881103515625,1.6160300065040587,0.7832230918228625,-1.8174509889930486
1705061543213751300,1.148751220703125,0.9910124402999877,0.7986912945896386,-1.8821441181778906
1705061543223691300,1.158691162109375,0.11136661755442619,0.43890462748408315,-1.9084312366008758
1705061543233631500,1.168631591796875,-0.7257108140528201,-0.09238777631819248,-1.662805786204338
1705061543243571200,1.1785712890625,-1.2657938425540924,-0.5978501578152179,-1.3354144912689923
1705061543253511200,1.18851123046875,-1.2857377294301986,-0.9446288747876882,-1.136012739647925
1705061543263451400,1.198451416015625,-1.0014088196951896,-1.0817430970609188,-1.0676656910654156
1705061543273391400,1.208391357421875,-0.8580057264108211,-1.0151426729500292,-1.0264015143934637
1705061543283331000,1.2183310546875,-0.9640822747331113,-0.8694540990769862,-1.1416686465177683
1705061543293271300,1.228271240234375,-0.9700573305547237,-1.004618940848112,-0.8742842226471751
1705061543303211300,1.238211181640625,-0.8461386899411678,-0.9530500816524028,-0.9046712506696581
1705061543313151200,1.248151123046875,-0.5104162045121192,-0.8800216703206301,-0.772379333986342
1705061543323092200,1.25809228515625,-0.37318566238284107,-0.8895914626985788,-0.2777046692896634
1705061543333032400,1.268032470703125,-0.6545517037242651,-0.589877279239893,-0.05694065189454704
1705061543342972200,1.27797216796875,-1.065675759357214,-0.2013350577712059,0.11124357569664715
1705061543352912100,1.287912109375,-1.2433674912124872,-0.04968143801391124,0.12621109893228857
1705061543362852400,1.297852294921875,-1.0831921268254519,-0.3694908995181322,-0.07418897954374551
1705061543372792300,1.307792236328125,-0.7053612689852714,-1.3272025432407855,-0.49993985521588474
1705061543382732000,1.31773193359375,-0.5009082983892411,-2.7335826680928466,-1.0523665612552315
1705061543392672300,1.32767236328125,-0.4461842630982399,-4.206636866813898,-1.469651550670713
1705061543402612200,1.3376123046875,-0.4502933789175004,-5.4037265909761185,-1.5054869802922008
1705061543412552400,1.347552490234375,-0.6827079770199954,-6.121382108867168,-1.1281777351733298
1705061543422492200,1.3574921875,-0.8048964328400791,-5.939822011145949,-0.4728234463619068
1705061543432432000,1.36743212890625,-0.9277003902100026,-4.730242223244905,0.060564235519454813
1705061543442372400,1.377372314453125,-1.7134094536297022,-3.290002498888969,0.2886448184390552
1705061543452312300,1.387312255859375,-2.9235020133584735,-2.181462580317259,0.21455358191505072
1705061543462252300,1.397252197265625,-3.6770284705758094,-1.246331017193198,-0.046104109250102186
1705061543472193300,1.407193359375,-3.605172025632858,-0.5204501072704791,-0.15480506952553988
1705061543482133200,1.41713330078125,-2.8504242099270223,-0.05009118785858154,-0.10420812410190701
1705061543492073200,1.4270732421875,-1.77571875641793,0.16124445492327213,0.3784068676298484
1705061543502013200,1.43701318359375,0.1105424416899681,0.29089491718709465,0.30823216522876173
1705061543511953400,1.446953369140625,2.180588720092177,0.40114042175710196,-0.13906433342769742
1705061543521893400,1.456893310546875,3.574500700776279,0.754307378461957,-0.8833524221785366
1705061543531833000,1.4668330078125,3.9628739954188466,1.3393009773135185,-1.8295549760237335
1705061543541773300,1.476773193359375,4.004076066640019,1.7576660901159047,-2.5708061812967062
1705061543551713300,1.48671337890625,3.751732998426258,2.1078215900450945,-2.9418595078259706
1705061543561653200,1.4966533203125,3.340848304507136,2.388804185026884,-2.84689457449615
1705061543571593200,1.50659326171875,2.7389392266899346,2.6921412351578473,-2.7435458437025546
1705061543581533200,1.516533203125,2.302318033967912,2.93076352879405,-2.680494928766787
1705061543591473400,1.526473388671875,2.3098779478281735,3.078943919482827,-2.4670868636250494
1705061543601413400,1.536413330078125,2.572223646879196,2.9898271276593205,-2.137299028941989
1705061543611353000,1.54635302734375,2.7050334499567747,2.6907693622827527,-1.671343605186045
1705061543621294300,1.55629443359375,2.4150562321364877,2.303407875031233,-1.2777481919810174
1705061543631234000,1.566234130859375,2.111077376970649,1.8372160121709107,-0.9733411014657467
1705061543641174300,1.57617431640625,1.7436475016355513,1.3035299912303686,-0.7762128477346152
1705061543651114200,1.5861142578125,1.2982228247329592,0.8036340116888284,-0.6612750206299126
1705061543661054500,1.596054443359375,0.7121329550772905,0.31059447391331196,-0.5084945887997746
1705061543670994200,1.605994140625,0.2546335172384977,-0.026927754414081573,-0.34991306947544215
1705061543680934100,1.61593408203125,-0.20123510452806948,-0.5191846173793078,-0.036448885344713924
1705061543690874400,1.625874267578125,-0.4188736468464136,-0.5394622662544251,0.09021452393233775
1705061543700814300,1.635814453125,-0.10270283410549164,-0.5697264716148376,0.3140913761183619
1705061543710754000,1.645754150390625,0.3394178328156471,-0.5650339298844337,0.612787760836631
1705061543720694300,1.6556943359375,0.9018547319442033,-0.25281974581480027,0.8414633916065096
1705061543730634200,1.66563427734375,1.3329592070713638,0.01876490622460842,1.087152408758551
1705061543740574500,1.675574462890625,1.5391802833184598,0.2944435495793819,1.261949588216096
1705061543750514200,1.68551416015625,1.547940220618248,0.6667103435516357,1.382734899239987
1705061543760454100,1.6954541015625,1.3892922119289637,1.0217793344855308,1.460543968977034
1705061543770395400,1.7053955078125,1.2511831333994865,1.6210381900548934,1.2885969182536006
1705061543780335000,1.715335205078125,1.1566425629615782,2.1482588143736123,1.1962976970016956
1705061543790275300,1.725275390625,1.153370117162168,2.4726368989676235,1.0816709086075424
1705061543800215300,1.73521533203125,1.3282201958507298,2.6887200285375115,0.9107192986622452
1705061543810155300,1.7451552734375,1.5809274212017654,2.603531808334589,0.8298153316497803
1705061543820095200,1.75509521484375,1.8217369957491754,2.4379086999356745,0.769803638279438
1705061543830035200,1.76503515625,1.8309461381211876,2.308026767003536,0.6564218815103173
1705061543839975400,1.774975341796875,1.7790268580526112,2.209102866914868,0.5377075315415859
1705061543849915400,1.784915283203125,1.7017326059699058,2.3003958337336776,0.4272603669196367
1705061543859855000,1.794855224609375,1.4693082901909946,2.3176959281027316,0.3649801440954208
1705061543869795300,1.80479541015625,1.2763105603933333,2.2479876011043785,0.3163791947945952
1705061543879735300,1.8147353515625,1.098038982823491,2.029474614039063,0.3462780739739537
1705061543889675300,1.82467529296875,0.8942226296305655,1.6960282568484544,0.3616688275903463
1705061543899615200,1.834615234375,0.7166475098922849,1.2195599146455525,0.3599018179178238
1705061543909555200,1.84455517578125,0.4756880054801702,0.7498883929759264,0.4408952167794108
1705061543919496200,1.85449609375,0.12232552620321512,0.14941723900735376,0.7510261648342013
1705061543929436200,1.864436279296875,0.13417480782046914,-0.09505787231028079,0.8290265193596482
1705061543939376400,1.87437646484375,-0.1553285088777542,-0.21007132193446157,0.9058680592387914
1705061543949316400,1.88431640625,-0.45813232891485095,-0.17250760721564293,0.8631964999869466
1705061543959256000,1.894256103515625,-0.8053527983054518,0.007963526225090027,0.7373539055734872
1705061543969196300,1.9041962890625,-1.1333796146653592,0.2589554720908403,0.4916296709775924
1705061543979136300,1.91413623046875,-1.4316663956694304,0.13368074069321154,0.38071985727995633
1705061543989076500,1.924076416015625,-1.7143085944265126,-0.013823358169198035,0.18800006764084098
1705061543999016200,1.93401611328125,-1.6660281092517077,-0.2842670234799385,-0.17854630285799503
1705061544008956200,1.9439560546875,-1.4909914219498634,-0.7000105556070804,-0.6895899916186928
1705061544018896400,1.953896484375,-1.6693858952470122,-1.2422720971912145,-1.1672072115957737
1705061544028836400,1.96383642578125,-1.8881746305137872,-1.867216013637185,-1.5726222419321536
1705061544038776000,1.973776123046875,-2.2765696985967456,-2.409153145572543,-1.9209753686144946
1705061544048716300,1.98371630859375,-2.6201795762747526,-2.9824329257547855,-2.08015266187489
1705061544058657300,1.9936572265625,-2.6466771225780246,-3.705979839771986,-2.159907751113176
1705061544068597200,2.00359716796875,-2.505314595210552,-4.5960313211977475,-2.3334797726899383
1705061544078537200,2.013537109375,-3.1560458638638256,-5.551966018375754,-2.6122154655277727
1705061544088477400,2.0234775390625,-2.3918396072000263,-6.550627512124181,-2.8810221772864457
1705061544098417400,2.03341748046875,0.872829274598509,-7.394687057703733,-2.559864223782718
1705061544108357000,2.043357177734375,3.811318867599964,-8.040703572794795,-1.8855337606161833
1705061544118297300,2.05329736328125,3.778424313735962,-8.256879641345142,-0.9497864036813378
1705061544128237300,2.0632373046875,0.6074604283340275,-7.696528316318989,0.021554244682192802
1705061544138177300,2.07317724609375,-2.208896969079226,-6.021791269302367,1.0402020031437278
1705061544148117200,2.0831171875,-0.5132124111019074,-3.741485452917218,3.0689433344721793
1705061544158057700,2.0930576171875,2.1124080410525203,-1.2823568548202513,5.241428827607631
1705061544167998000,2.102998046875,3.4041771596014496,0.5714613325834274,6.550818650782108
1705061544177937700,2.112937744140625,3.768389534194767,2.2599650391459463,6.541485005247592
1705061544187877600,2.122877685546875,3.909779826352,3.7533705365002152,6.3989873363703484
1705061544197819000,2.13281884765625,3.658910630083084,4.5129976486802095,6.324578284335136
1705061544207758600,2.142758544921875,3.602178689035773,4.536266880586743,6.150851364457607
1705061544217698800,2.15269873046875,3.563543253432214,4.014697998419404,5.9724471004188056
1705061544227638800,2.162638671875,3.458039974953234,3.1743864071965215,5.8051955140352245
1705061544237578800,2.172578857421875,3.323227307620644,1.8043664664924144,5.407306787550449
1705061544247518700,2.182518798828125,2.9603958659917113,0.3803489781409502,4.580278456270695
1705061544257458700,2.192458740234375,2.57089269053638,-1.3419155437260866,3.9869361312687395
1705061544267399000,2.20239892578125,2.0187142967022953,-2.6961878802001475,3.4168417031243443
1705061544277338600,2.212338623046875,0.9568705167233943,-3.4181349578052758,2.622797065296769
1705061544287278600,2.222278564453125,-0.5081235635302961,-3.5457577136337757,1.704397879656404
1705061544297218800,2.23221875,-1.8358248500734566,-3.307400208413601,0.9114001205332577
1705061544307158800,2.24215869140625,-2.426211101748794,-3.0174066239804027,0.3575384497873485
1705061544317098500,2.252098388671875,-1.9073147997915743,-2.522060562828183,0.14491276719495652
1705061544327038700,2.262038818359375,-0.8786176487416029,-1.5391384900033473,0.05312587937936186
1705061544336979700,2.271979736328125,0.49516719745397564,-1.125116959363222,0.10861585754156113
1705061544346919700,2.281919677734375,1.4167631333090365,-0.6276455766201019,0.1870698010534048
1705061544356859600,2.291859619140625,1.837677346072346,-0.133644500336051,0.17430004359036683
1705061544366800000,2.3017998046875,1.7892934005230665,0.274167069748044,0.09726604987904429
1705061544376739800,2.31173974609375,1.6464086320243776,0.4891945527851581,-0.0006225158125162124
1705061544386679600,2.321679443359375,1.3841332217305897,0.6915718130856752,-0.08091931071206927
1705061544396619800,2.331619873046875,1.108090567369014,0.5691559782505035,-0.22283991035372017
1705061544406559700,2.341559814453125,0.9028140054304152,0.12741992673277855,-0.3425884256757796
1705061544416499700,2.351499755859375,0.9781352769397199,-0.22679800032973288,-0.17657573343738914
1705061544426439700,2.361439697265625,0.8670639890700578,-0.40747137834429736,-0.036746114725619554
1705061544436379600,2.371379638671875,0.49684068362414835,-0.25862287913560866,-0.025858371616899967
1705061544446319900,2.38131982421875,0.022903321203589438,-0.005499766460061073,-0.07949293117076157
1705061544456259800,2.391259765625,-0.32778292460143565,0.22601591004133223,-0.16880509943589567
1705061544466199600,2.401199462890625,-0.4539437181185931,0.3316343393325806,-0.2230121981807053
1705061544476140800,2.411140869140625,-0.4311543786834925,0.36897944286465645,-0.3106486883185804
1705061544486080800,2.421080810546875,-0.4123415416639298,0.42691549900472164,-0.42910555639490483
1705061544496020700,2.431020751953125,-0.44246020107381046,0.49109717153608795,-0.5987060439921915
1705061544505960700,2.440960693359375,-0.42125316239409144,0.42768063815832136,-0.7210410686761141
1705061544515900700,2.450900634765625,-0.42072241651825604,0.24844226138293743,-0.7338083419211209
1705061544525840600,2.460840576171875,-0.4868429481577128,-0.03341828547716141,-0.6835987883798778
1705061544535780600,2.470780517578125,-0.6460294476378708,-0.2992062339365482,-0.6315919761583209
1705061544545720800,2.480720947265625,-0.8593265997510403,-0.608133651420474,-0.5110394509769975
1705061544555660800,2.490660888671875,-0.6477022762209177,-0.8870300877779722,-0.2852459515146911
1705061544565600500,2.5006005859375,0.07844517568349837,-1.1354460456758737,0.029259996753931043
1705061544575540700,2.510540771484375,0.3446657434064895,-1.0984691909343003,0.2888037901267409
1705061544585480700,2.520480712890625,0.13942257228083907,-0.8250275128513574,0.4263096420660615
1705061544595421000,2.5304208984375,0.021938275563716886,-0.5321130725353956,0.5569881322033703
1705061544605360600,2.540360595703125,0.3928372883141041,-0.4199889146119356,0.8789889662720263
1705061544615300600,2.550300537109375,1.2093003864377736,-0.4176940816730261,1.312294604705274
1705061544625241900,2.560241943359375,2.1133708947353065,-0.49340369491279124,1.6943522864602505
1705061544635181600,2.570181640625,3.123757459199428,-0.5285469044864177,2.0189995433844623
1705061544645121800,2.580121826171875,3.6525849341928955,-0.42691842161417004,2.2496860755853354
1705061544655061800,2.590061767578125,3.259966841587424,-0.3128916449397802,2.2825223233908414
1705061544665001700,2.600001708984375,1.9792080696135759,-0.4166390196621418,2.3336714958697558
1705061544674941700,2.609941650390625,0.45848552626669403,-0.4544388812243938,2.861089104065299
1705061544684881700,2.619881591796875,-0.3037197658382356,-0.3817553378075361,3.775527423250675
1705061544694822000,2.62982177734375,-0.12977598833963275,-0.27584406304955483,4.501274769921601
1705061544704761900,2.639761962890625,1.314708826240152,-0.010486322700977324,4.7568993440240614
1705061544714701600,2.64970166015625,3.3249969476416705,0.4704653023958206,4.393705498823524
1705061544724641800,2.659641845703125,5.183052626484632,0.8127472924709319,3.840637901064753
1705061544734581800,2.669581787109375,6.3452726973176,0.6918921310812235,3.505370173665881
1705061544744521700,2.679521728515625,6.739159202423691,0.2551964118182659,3.220173175859451
1705061544754462700,2.689462646484375,6.616690176096558,-0.4753530744373798,2.9215327591121194
1705061544764402700,2.699402587890625,5.93273292966783,-1.493569748005271,2.6723089919626712
1705061544774342700,2.7093427734375,3.989522640630603,-2.7042151193112134,2.4460079813696445
1705061544784282600,2.71928271484375,0.9391939902573824,-4.187719984897971,2.317190024407208
1705061544794222800,2.729222900390625,-1.7554489985883235,-5.584437378391623,2.3101319225892425
1705061544804162800,2.739162841796875,-2.723938641434908,-6.045769526261091,2.618561911945045
1705061544814102500,2.7491025390625,-1.672368418189138,-5.722006943216919,3.1339792857453226
1705061544824042800,2.759042724609375,-0.1924758978806436,-4.554413362652063,3.2800691338956356
1705061544833982700,2.768982666015625,1.1338614068329333,-3.0345997508436438,3.1828175509333607
1705061544843922700,2.778922607421875,2.2642783723004163,-1.6246183866292236,3.236760738044977
1705061544853862700,2.788862548828125,2.7789567643016575,-0.7715811693459749,3.618751345913112
1705061544863802600,2.798802734375,2.5286270817369223,-0.49529170061647887,4.190824672915041
1705061544873742800,2.808742919921875,1.849146103939414,-0.7487929989546537,4.7140088813245296
1705061544883683600,2.81868359375,0.9504374149359762,-1.2733856128573418,5.031716402113437
1705061544893623800,2.828623779296875,-0.05491451636180281,-1.824645284411311,5.025977566200495
1705061544903563800,2.838563720703125,-0.7864496526539325,-2.038690770673752,4.8028348735079165
1705061544913503700,2.848503662109375,-0.9906424379438161,-1.8404063326448201,4.362894765496254
1705061544923443700,2.858443603515625,-0.6623638387799262,-1.2901900326639413,3.669736852262914
1705061544933383700,2.8683837890625,-0.12330825363025069,-0.44748190169334406,2.7833281112536787
1705061544943323600,2.87832373046875,0.17857260634303093,0.3574830663383007,1.8343892643123865
1705061544953263900,2.888263916015625,0.28055779369845985,1.0040648140966892,0.9758113640367985
1705061544963203600,2.89820361328125,0.5601457194514572,1.654161291977763,-0.033870705419778824
1705061544973143800,2.908143798828125,0.8891602316744625,2.010200004726648,-0.9046379329219459
1705061544983083800,2.918083740234375,1.185193680793792,2.079073634466529,-1.6830641458570956
1705061544993023700,2.928023681640625,1.2290507965683937,1.956333389982581,-2.3692516355559228
1705061545002963700,2.937963623046875,0.451920760923624,1.828623540392518,-2.8058295736581087
1705061545012904700,2.94790478515625,-0.4179296439945698,1.5977338868349789,-2.985861731159687
1705061545022844700,2.9578447265625,-1.025742831289023,1.1224304967582226,-2.611127670291066
1705061545032784600,2.96778466796875,-1.2731212628327309,0.49511926665902134,-1.878894468732178
1705061545042724600,2.977724609375,-1.2249899768702686,-0.1857277387946844,-1.2450646505191922
1705061545052664800,2.987664794921875,-1.1854225211136042,-0.863469763970375,-0.7099360295549034
1705061545062604500,2.9976044921875,-0.7913723498784005,-1.4972463906913995,-0.1635559467360377
1705061545072544800,3.007544677734375,-0.100759737213701,-1.8916770856767893,0.41580052301138637
1705061545082484700,3.017484619140625,0.549714195677638,-1.8163474116653202,1.0345729112155735
1705061545092424700,3.0274248046875,0.9585618308112025,-1.40977678155303,1.6002626746602355
1705061545102364700,3.03736474609375,1.2448475006371735,-0.8483136958926916,1.946320968403667
1705061545112304600,3.0473046875,1.503653627385199,-0.10004325950741767,2.198642993829399
1705061545122244900,3.057244873046875,1.6126751431182025,0.7944120098352432,2.404167758375406
1705061545132184800,3.067184814453125,1.413174607297778,1.555916606324911,2.572368900568783
1705061545142125600,3.07712548828125,1.0257760029062628,1.9467162513315677,2.7180834856659173
1705061545152065800,3.087065673828125,0.6101680798575282,1.874537734827399,2.7902815836533903
1705061545162005800,3.097005859375,0.3908838161587715,1.3749901303321121,2.7665765906780955
1705061545171945700,3.10694580078125,0.29301731616854665,0.6785410665988921,2.6378070029020306
1705061545181885700,3.1168857421875,0.1931881378032267,-0.1580471201866865,2.337979129935801
1705061545191825700,3.12682568359375,0.21911212200224398,-0.9507949962019919,1.9025281500369309
1705061545201766000,3.136765869140625,0.4296387864887714,-1.7524585846006868,1.337948539791256
1705061545211705600,3.14670556640625,0.7396691967785358,-2.3301789775788784,0.6008664368964731
1705061545221645800,3.156645751953125,1.0378326436638832,-2.6214514959067103,-0.08324819205105304
1705061545231585800,3.166585693359375,1.4340879237279296,-2.3406115242660044,-0.9788173409197479
1705061545241525800,3.17652587890625,1.4331436286151409,-1.8995675466656683,-1.5023179948672651
1705061545251465700,3.1864658203125,1.4931319411098956,-1.2634002254158259,-2.1622312256246805
1705061545261405700,3.19640576171875,1.2998733684189616,-0.6106126087546349,-2.6781705774724482
1705061545271346700,3.2063466796875,0.9332998176522552,-0.09273615136444568,-2.9276480271220207
1705061545281286700,3.21628662109375,0.7420062614239752,0.30012977852225303,-3.1847000036790964
1705061545291226400,3.226226318359375,0.7292749362751841,0.6203232709079981,-3.4849399645775554
1705061545301166300,3.236166259765625,0.6898645707763731,0.7748673514097929,-3.7550972141623493
1705061545311106600,3.2461064453125,0.6824763602212071,0.8702864582479,-4.131654983326793
1705061545321046300,3.25604638671875,0.5417326954044401,0.8892278900831937,-4.396759333436191
1705061545330986500,3.265986572265625,0.2506529231697321,0.8285533488899469,-4.596175990365445
1705061545340926500,3.275926513671875,-0.377145213663578,0.5507499684661626,-4.531473508830368
1705061545350866400,3.285866455078125,-1.0499211408644915,0.07324117729961872,-4.303304220147431
1705061545360806400,3.295806396484375,-1.3158248246580362,-0.37744565791487694,-4.278625998225808
1705061545370746400,3.305746337890625,-1.5655368137158452,-0.8051344793796539,-4.111886745278537
1705061545380686300,3.315686279296875,-2.0051720935620367,-1.0860779113948344,-3.68409534022212
1705061545390627300,3.32562744140625,-2.3792675642661747,-1.149376955872774,-3.1295296128600834
1705061545400567300,3.3355673828125,-2.493902974358201,-0.9317465968608856,-2.5341671802073718
1705061545410507500,3.345507568359375,-2.2996821325063705,-0.628255232951045,-1.9860142424970864
1705061545420447200,3.355447265625,-1.9233581720978021,-0.34229952573180195,-1.2920147638730703
1705061545430387500,3.365387451171875,-1.5165515412725508,-0.0029530045866966244,-0.7173081657581031
1705061545440327400,3.375327392578125,-1.0667056869268416,0.3092114951223135,-0.11509674399346112
1705061545450267400,3.385267333984375,-0.4613246952153742,0.4248375236868858,0.4678716326408088
1705061545460207400,3.395207275390625,0.474800701251626,0.5010287829637528,0.8410368367575108
1705061545470147300,3.405147216796875,1.3651133178316055,0.5080845466941595,1.3510448988601564
1705061545480087300,3.41508740234375,1.8480133005172013,0.8477449560940266,1.452865689434111
1705061545490027500,3.425027587890625,1.923956722512841,1.4338292727917432,1.2673742436133324
1705061545499967200,3.43496728515625,1.9217098203688858,1.7079636093139647,1.8776694569818675
1705061545509908500,3.444908447265625,1.3652017267674208,2.066010739275813,2.4235890826821325
1705061545519848400,3.454848388671875,0.8807301108509301,2.2099615295708177,3.181158970071375
1705061545529788400,3.464788330078125,0.1612443087927997,2.41096808604002,3.8205323938861486
1705061545539728400,3.474728271484375,-0.6916203284025192,2.4456278960108757,4.052562741911411
1705061545549668400,3.48466845703125,-1.4792084835670887,2.531549691185355,3.0519679420128463
1705061545559608600,3.494608642578125,-2.0210691892653703,2.431962358751893,1.2048954294770955
1705061545569548300,3.50454833984375,-1.9156565116792916,1.9862451286435125,-0.08681567527428269
1705061545579488300,3.51448828125,-1.6014648900568484,1.530188875350356,-0.8249604389645159
1705061545589428500,3.524428466796875,-1.3242647362232207,1.1994237200677393,-1.3042419388920068
1705061545599368400,3.534368408203125,-1.1912602873563767,1.1339935087800026,-1.526426892468333
1705061545609308400,3.544308349609375,-0.9559053980182856,1.3051631453901529,-1.471033944939822
1705061545619248400,3.554248291015625,-0.5970937134247273,1.5971493649452924,-1.0520580067627132
1705061545629189400,3.564189453125,-0.25986915286965667,1.8748492849946021,-0.32833208291679616
1705061545639129300,3.57412939453125,0.1690063941616565,1.9618676432341335,0.47886882747337217
1705061545649069300,3.5840693359375,0.48461957301981745,1.840607992696762,1.2139942433424293
1705061545659009500,3.594009521484375,0.7168756926249712,1.5546774199187754,1.9275252286493778
1705061545668949200,3.60394921875,0.8837743008524179,1.222755495816469,2.659705530977249
1705061545678889200,3.61388916015625,0.8184796986430883,0.8036749282211065,3.45550227316916
1705061545688829400,3.623829345703125,0.5318593900352716,0.3581330546796322,4.048721848574281
1705061545698769400,3.633769287109375,-0.012294833427667616,-0.05627718301713466,4.385618638479709
1705061545708709400,3.64370947265625,-1.130695709343627,-0.62313599024117,4.698878532209992
1705061545718649300,3.6536494140625,-2.8415444456398484,-1.3884089993536473,4.667580307626724
1705061545728589300,3.66358935546875,-4.808300445437431,-2.30835526830554,4.204128098863363
1705061545738529500,3.673529541015625,-6.4106748515546315,-3.397417748469114,3.6477380786836147
1705061545748470300,3.68347021484375,-6.679091394951939,-4.034965125900507,2.9733523781985043
1705061545758410500,3.693410400390625,-5.478706136375665,-4.116858396211266,2.0556647018283605
1705061545768350500,3.7033505859375,-2.8979128140717743,-3.91065602466464,0.9859671396091579
1705061545778290200,3.713290283203125,-0.02445157355889678,-3.7116608080178497,0.18383286495879292
1705061545788230400,3.72323046875,3.012402532082796,-3.245048673918843,-0.4289782767534256
1705061545798170400,3.73317041015625,5.295261540082096,-2.3126082495748994,-0.8218678797766565
1705061545808110600,3.743110595703125,5.872676228111982,-1.1047674142956734,-0.8981959171757101
1705061545818050300,3.75305029296875,5.547378106063604,-0.2467658526033163,-0.7246843936145305
1705061545827990300,3.762990234375,5.212921110525727,-0.007048164945840835,-0.3154745010398328
1705061545837930500,3.772930419921875,4.989702722248435,-0.2593354113191366,-0.1783064296875149
1705061545847870500,3.782870361328125,4.9655602146387094,-0.7709972319781779,-0.6384872155647725
1705061545857810400,3.792810546875,5.090373758265375,-1.5846306596338748,-1.1132914239477365
1705061545867751400,3.80275146484375,5.453634823483228,-2.1760668587535617,-1.3350865744888782
1705061545877691400,3.81269140625,5.757677976056933,-3.2407074298441407,-1.5559334113292396
1705061545887631400,3.82263134765625,5.083310395750403,-3.839112883454561,-1.9852944037899374
1705061545897571300,3.8325712890625,3.640002808256447,-4.942077047720551,-2.774744115042686
1705061545907511600,3.842511474609375,2.0214245785742997,-5.454576488247514,-3.4929534674242135
1705061545917451300,3.852451171875,0.9104229460641742,-5.041491361674666,-3.595796294522285
1705061545927391200,3.86239111328125,1.562652198190242,-4.76100561029911,-3.0721982446148988
1705061545937331500,3.87233154296875,2.2996534909337756,-3.584134498301148,-2.3558871270701287
1705061545947271400,3.882271484375,2.9523376472204923,-2.503395025324821,-1.876406743569672
1705061545957211400,3.89221142578125,3.113151894032955,-1.2126818455696105,-1.6187470103777943
1705061545967151400,3.9021513671875,3.0105852535277604,-0.04565115958452225,-1.4265417461320757
1705061545977091300,3.91209130859375,2.963427488772571,0.9328454980134964,-1.2620245531484484
1705061545987032300,3.9220322265625,3.1984307151287794,1.5939748265624045,-1.1047701907746492
1705061545996972300,3.93197216796875,3.3775434196978806,1.9116326629906892,-1.1267414918251335
1705061546006912500,3.94191259765625,3.2975755644917486,1.8998539623916149,-1.224398879109323
1705061546016852500,3.9518525390625,2.993636456814408,1.7151766094326972,-1.3595672280117868
1705061546026792200,3.961792236328125,2.601190798166394,1.5821306595116853,-1.5690940678060055
1705061546036732400,3.971732421875,2.08642414335981,1.4400117608189582,-1.8598165510356426
1705061546046672400,3.98167236328125,1.3288200614400207,1.1546943515032528,-2.225403136591613
1705061546056612600,3.991612548828125,0.3268502468612045,0.7938818484812974,-2.5865032243832946
1705061546066552300,4.00155224609375,-0.5091670081686228,0.32902328005135056,-2.908487984099984
1705061546076492300,4.0114921875,-0.8089585677124559,-0.14819558825790882,-3.0710145877882837
1705061546086432500,4.0214326171875,-0.5755149918884038,-0.5168927070498466,-3.074751728489995
1705061546096373200,4.031373291015625,0.041138139139488335,-0.7803098347246646,-2.9391368048638102
1705061546106313500,4.0413134765625,0.22369660024829208,-0.7932499803185462,-2.6185850005596873
1705061546116253400,4.05125341796875,0.2877181137818843,-0.5897305642455816,-2.300288866227865
1705061546126193400,4.061193359375,0.2614795106757432,-0.3970142817378044,-1.8890502443045376
1705061546136133400,4.07113330078125,0.1578525474626571,-0.38034137935638423,-1.3935478235468268
1705061546146073300,4.0810732421875,0.015148469293117523,-0.3469908984184265,-0.9364172190204262
1705061546156013600,4.091013671875,-0.18492862430624663,-0.20496143157482147,-0.5059223271589726
1705061546165953300,4.100953369140625,-0.43768823743164537,-0.04755436285734176,-0.19043054619077593
1705061546175893200,4.110893310546875,-0.8277023580837994,0.17677987770736217,0.07948799926731735
1705061546185833500,4.12083349609375,-1.253593701672554,0.33206104031205175,0.372296677653864
1705061546195773400,4.1307734375,-1.6333774471461773,0.3864168998777866,0.6700091659013182
1705061546205713200,4.140713134765625,-1.8836773190945386,0.3253057208329439,0.8520477678544819
1705061546215654400,4.150654296875,-1.92218679023087,0.2481377254784107,0.80040452824831
1705061546225594400,4.160594482421875,-1.8860370339632033,0.21767186006605624,0.5765870050340891
1705061546235534300,4.170534423828125,-1.7186054148375987,0.32658465472757814,0.2985690320115536
1705061546245474300,4.180474365234375,-1.3998375713407993,0.47951545481383795,0.007047872684895992
1705061546255414500,4.19041455078125,-1.0459843859374522,0.45440380991101265,-0.21087635470703242
1705061546265354500,4.2003544921875,-0.6807382843822241,0.5546686032146215,-0.4857257806960493
1705061546275294200,4.210294189453125,-0.5655997470736503,0.8505915776968002,-0.763741050304845
1705061546285234400,4.220234375,-0.4632528867989778,1.150740060919523,-1.013011140814051
1705061546295174400,4.23017431640625,-0.17298516159951685,1.3522417074292898,-1.191165887071192
1705061546305114600,4.240114501953125,0.2507685854386538,1.4776491252958774,-1.2859300371319056
1705061546315054300,4.250054443359375,0.6304547157566994,1.6818196987539529,-1.3118524138957262
1705061546324995300,4.259995361328125,0.5829535443913191,2.0599299580574035,-1.1783283981341868
1705061546334935600,4.269935546875,0.14603629133217036,2.8353824158787724,-1.2209466197635979
1705061546344875300,4.279875244140625,-0.28311778037957847,3.60589566373229,-1.2834148394405842
1705061546354815500,4.2898154296875,-0.5300145658861846,4.035377213832736,-1.2839224967017768
1705061546364755500,4.29975537109375,-0.14165354620330034,3.9298639984816313,-1.321071200878918
1705061546374695400,4.3096953125,1.3480097689479589,2.8942496153891084,-1.266727762403339
1705061546384635400,4.319635498046875,3.0200585997939107,1.3831155691206454,-1.1067284852355719
1705061546394575400,4.329575439453125,4.052435900661349,0.15756430510580538,-1.1386625235043466
1705061546404515600,4.339515625,4.294230394592881,-0.7991723561048507,-1.3418207050494848
1705061546414455300,4.349455322265625,4.2337902466773985,-1.5062901133686304,-1.5481316515371202
1705061546424396300,4.359396240234375,4.0757887191981075,-1.765539599969983,-1.6051272119566797
1705061546434336300,4.369336181640625,4.038849858379364,-2.001512840402126,-1.5528784076727926
1705061546444276200,4.379276123046875,4.137375699061155,-2.2344003897786138,-1.485163738709688
1705061546454216200,4.38921630859375,4.305287795180082,-2.534830612552166,-1.4231643786534667
1705061546464156200,4.39915625,4.428875011882186,-2.850022351127863,-1.3678636394530534
1705061546474096400,4.409096435546875,4.365524529477954,-3.1882021665811537,-1.390387898211181
1705061546484036000,4.4190361328125,4.131687132030725,-3.5950627195507288,-1.4434379358753562
1705061546493976000,4.42897607421875,3.760525084429979,-3.9386663136184215,-1.489172097568214
1705061546503916300,4.438916259765625,3.3889404275029897,-4.168217996570467,-1.430742997214198
1705061546513856300,4.448856201171875,3.1123189503401516,-4.073067769801616,-1.2119376030735671
1705061546523796200,4.458796142578125,3.02735226393342,-3.3961715478003023,-0.8921939002819359
1705061546533737200,4.4687373046875,3.04525616941452,-2.625072024491429,-0.5893720331314951
1705061546543677400,4.478677490234375,3.0368530827283857,-1.881498221489787,-0.33566264500059184
1705061546553617200,4.4886171875,2.9604928966253996,-1.2028835051327944,-0.14035649213008583
1705061546563557000,4.49855712890625,2.878333084332943,-0.7734919714033603,0.03238141671009362
1705061546573497300,4.508497314453125,2.8712095160633324,-0.5073737680763006,0.06577442161552607
1705061546583437300,4.518437255859375,2.9768039799571038,-0.41708910151720047,-0.0449575512971729
1705061546593377000,4.528376953125,3.123164754003286,-0.39333822357356546,-0.18084909990765152
1705061546603317200,4.538317138671875,3.239479933875799,-0.27906945483684537,-0.33436025716513396
1705061546613257200,4.54825732421875,2.6624352482020854,-0.03944295259416103,-0.42789194282144305
1705061546623197400,4.558197509765625,0.4643633322589099,0.1348544606477022,-0.24182941911444067
1705061546633137200,4.56813720703125,-3.8147985264092683,0.10649579664766788,-0.05019771697297692
1705061546643077000,4.5780771484375,-6.437975530934334,-0.009306757527589797,-0.023269743363186716
1705061546653018000,4.58801806640625,-4.009864586913586,-0.22061726586818695,-0.32701142877228556
1705061546662958000,4.5979580078125,-0.5444517451047897,-0.38828152470588684,-0.8887457325894385
1705061546672898300,4.607898193359375,1.4039566970974207,-0.2412275076985359,-1.5204787977188825
1705061546682838300,4.61783837890625,1.102606436869502,0.4746516481697559,-1.7628303410112858
1705061546692778000,4.627778076171875,0.35364166154451665,1.001342111134529,-1.5743961197368799
1705061546702718200,4.63771826171875,0.1903711806863546,1.1885305701315403,-1.1410465690966696
1705061546712658200,4.647658203125,0.24444237809181213,1.2486679357081651,-0.6193724729891866
1705061546722598400,4.657598388671875,0.3277635623138398,1.3789736470103262,-0.3547727114010602
1705061546732538000,4.6675380859375,0.23281674916259942,1.419834649708867,-0.27110797443836926
1705061546742478000,4.67747802734375,0.016369462455436586,1.3024877887010573,-0.24714286922216414
1705061546752419300,4.68741943359375,-0.04878017832525074,1.1014186883896588,-0.2214183165853843
1705061546762359000,4.697359130859375,-0.0380277520339936,0.9035013301074505,-0.20873930614572017
1705061546772299300,4.70729931640625,0.11756021149754524,0.8389929098397493,-0.17413813102692366
1705061546782239200,4.7172392578125,0.08326806579530238,0.8032552415043115,-0.16377810158673672
1705061546792179200,4.72717919921875,-0.06432203085012733,0.8928373127520084,-0.23024357420634478
1705061546802119200,4.737119140625,-0.26488610424883663,0.9933815075188874,-0.31612149370647963
1705061546812059100,4.74705908203125,-0.24699440066218376,1.061769984090328,-0.387247067091614
1705061546821999400,4.756999267578125,-0.0493476394822821,1.050007650104165,-0.41561731193158774
1705061546831939300,4.766939208984375,0.16777122634351252,0.9586053776919842,-0.322758447502926
1705061546841879000,4.776879150390625,0.20937048018872736,0.8548527422726154,-0.08534059775304048
1705061546851820300,4.7868203125,0.2541471584936604,0.7611831094503402,0.11189133554827421
1705061546861760300,4.79676025390625,0.19640172955486923,0.520200516423583,0.28148586832880973
1705061546871700200,4.8067001953125,-0.0057411740005016325,0.378887088894844,0.4485048515329137
1705061546881640200,4.81664013671875,0.0943470936924219,0.34713352175951,0.4073881570402533
1705061546891580200,4.826580078125,0.40368773161973803,0.17775310665369032,0.40939014451242983
1705061546901520100,4.83652001953125,0.482803390443325,-0.23785832352638242,0.07957631687158719
1705061546911460000,4.846460205078125,-0.033762568870186804,-0.903526464548707,-0.24742259947899728
1705061546921400300,4.856400390625,-0.9091635936528444,-1.5131991621047258,-0.4567739731084555
1705061546931340300,4.86634033203125,-1.7028858676582574,-1.6952555189102887,-0.9102595721960067
1705061546941280000,4.876280029296875,-2.2518507062733173,-1.8425737398117779,-0.962816857907176
1705061546951220200,4.88622021484375,-2.0315449905723333,-1.6185440351516007,-1.4149164825290441
1705061546961161200,4.8961611328125,-1.3658710043311117,-0.9919763168960809,-1.9780390258342027
1705061546971101200,4.90610107421875,-0.8764479034870862,-0.5282791934609413,-2.2415021846078336
1705061546981041200,4.916041259765625,-0.11843754232134669,-0.09497136307060718,-2.8650194292515514
1705061546990981400,4.9259814453125,0.9806599000465124,0.10802373686730861,-3.6564381024897097
1705061547000921300,4.93592138671875,2.3637854791045187,-0.05186287370622158,-4.287309363158047
1705061547010861000,4.945861083984375,3.5445325557529923,-0.29820144080817695,-4.960921448922157
1705061547020801300,4.95580126953125,4.240028848806023,-0.7853834847271441,-5.3445390734702345
1705061547030741200,4.9657412109375,4.016173916190862,-0.7382482240647077,-5.510262135112285
1705061547040681200,4.97568115234375,3.5386358989298343,-0.6447504406780004,-5.601068779718876
1705061547050621200,4.98562109375,3.1431974882066247,-0.2007727477133274,-5.610886993899941
1705061547060562200,4.995562255859375,3.1563989150851963,0.23688217197060585,-5.591291482070088
1705061547070502400,5.00550244140625,3.4280496180981395,0.4074807306945324,-5.667092280724645
1705061547080442000,5.015442138671875,3.641932607275247,0.33004385527074337,-5.624920779949426
1705061547090382300,5.02538232421875,3.421915060865879,0.353090384337306,-5.286123709380626
1705061547100322300,5.035322265625,3.117328302934766,0.15451777701675892,-4.825135844904184
1705061547110262300,5.04526220703125,2.618158884102106,-0.037734395110607145,-4.239796793615818
1705061547120202200,5.0552021484375,1.8914467840522526,-0.05329144520461559,-3.4806799690455197
1705061547130142200,5.06514208984375,1.2078489455204455,-0.06746727007329463,-2.778482132527232
1705061547140082200,5.075082275390625,0.7838222267597913,-0.21556699674129484,-1.9927648858010767
1705061547150022100,5.085022216796875,0.49909693811833855,-0.505576947787404,-1.1954270516470074
1705061547159963100,5.094963134765625,0.39975393583476543,-0.819761555147171,-0.5718513548143208
1705061547169903400,5.1049033203125,0.31694873831085857,-1.1742238123595714,0.059020198114961384
1705061547179843000,5.114843017578125,0.569757451274991,-1.7502029146283864,0.8760590502999722
1705061547189783300,5.124783203125,0.606748407607153,-2.2619138351261614,1.4450190675869583
1705061547199723300,5.13472314453125,0.4898662415016442,-3.2942911359936,1.9809587126731871
1705061547209663200,5.144663330078125,-0.13493117914572358,-4.227645168051123,2.2471385830596087
1705061547219603200,5.154603271484375,-0.5374404050379992,-5.507764473077654,2.808939814633131
1705061547229543200,5.164543212890625,-1.2844089650444686,-6.359273165619373,3.4407618001550433
1705061547239483100,5.174483154296875,-3.327017347553372,-6.563992020609975,3.372883611193299
1705061547249423400,5.18442333984375,-6.4336728653043505,-5.74578412464559,1.8567115707576274
1705061547259364000,5.194364013671875,-8.284256893092394,-4.9420577584981915,0.5758857248969376
1705061547269304300,5.20430419921875,-7.40310417291522,-4.266999273318052,0.14623802444934844
1705061547279244300,5.214244384765625,-5.067339504158497,-3.6158687762141226,0.184358642398566
1705061547289184300,5.224184326171875,-1.972165457625687,-3.0415333494991064,0.7237190557137131
1705061547299124200,5.234124267578125,0.8138990928545594,-2.6719629550039765,1.457099089220166
1705061547309064200,5.244064208984375,2.740105640120804,-2.386224689927697,2.22933916086629
1705061547319004400,5.25400439453125,4.04771705544591,-1.8991478599488734,2.9658532546147702
1705061547328944000,5.263944091796875,4.656015542039275,-1.0177870499789714,3.440238945324719
1705061547338884000,5.273884033203125,4.494479995214939,0.43125031333863734,3.6260423797041175
1705061547348825300,5.283825439453125,4.2726659207776185,1.9436685541987417,3.3456256019115447
1705061547358765000,5.29376513671875,3.9949908429086207,3.062891779348254,2.790414270122349
1705061547368705300,5.303705322265625,3.739105279782414,3.999626686015725,2.2312651604928075
1705061547378645200,5.313645263671875,3.821936707726121,4.450298908182979,1.6047954957842825
1705061547388585200,5.323585205078125,4.065141068455577,4.682018582823872,1.0543828695137054
1705061547398525200,5.333525146484375,4.304534346464276,4.788879121130704,0.4951528766676783
1705061547408465200,5.343465087890625,4.385429253387451,4.744577038067579,-0.1927958870826289
1705061547418405400,5.3534052734375,4.209817834937573,4.453624253213405,-0.907980959739536
1705061547428345000,5.363344970703125,3.3551801967203616,3.920511063724756,-1.4936843142956495
1705061547438285000,5.37328515625,2.1099059951037167,3.006916794148087,-2.043868611703068
1705061547448226300,5.383226318359375,0.6463584603965282,2.0473592302978036,-2.4391578232139346
1705061547458166000,5.393166015625,-0.42670507112443445,1.1434919894874096,-2.7598148414582013
1705061547468106200,5.403106201171875,-0.6324880482152104,0.2890203554868698,-2.816371133677661
1705061547478046200,5.413046142578125,-0.03118716542422771,-0.47830140284895895,-2.9070076824143527
1705061547487986400,5.422986328125,0.6015156945854425,-0.9108756582677364,-2.818046665674448
1705061547497926100,5.432926025390625,1.176887770871818,-0.9635849196702241,-2.450345864443481
1705061547507866000,5.4428662109375,1.5824679286420344,-0.6685550946354866,-1.804782207686454
1705061547517806300,5.452806396484375,1.8783935334727166,-0.16392624135315417,-1.1984851240433751
1705061547527746300,5.462746337890625,2.056659265823662,0.464774397277832,-0.6245667536966503
1705061547537687300,5.472687255859375,2.2293694098740815,1.2652864775538444,0.0005076572611927986
1705061547547627300,5.482627197265625,2.3458409493520853,1.9526625925153493,0.762287563560903
1705061547557567500,5.4925673828125,2.7501763677582143,2.514813075917959,1.4860846529468894
1705061547567507500,5.502507568359375,2.870290647652745,3.0422534804672,2.1593737903669474
1705061547577447400,5.512447509765625,2.428898002745211,3.5968361589640376,2.8382436505287885
1705061547587387600,5.5223876953125,1.7798410970449448,3.9803637671411036,3.30659035333544
1705061547597327400,5.532327392578125,1.3553940339803694,4.030617452085018,3.732315473511815
1705061547607267600,5.542267578125,1.00903354241997,3.743582132935524,4.33433999440223
1705061547617207600,5.55220751953125,0.8829270363733172,3.1120249358296395,4.828314182679355
1705061547627147500,5.5621474609375,0.7597476698197424,2.2777567164242267,5.225980498585105
1705061547637088500,5.572088623046875,0.3869020530462265,1.4672721081882714,5.299497570216656
1705061547647028500,5.582028564453125,0.030154315245151518,0.6973141561299562,5.032219090938568
1705061547656968700,5.59196875,-0.2847729271754622,-0.06756605427265167,4.3805321289956565
1705061547666908400,5.601908447265625,-0.3430909683704376,-0.5159831909894943,3.2040286812663075
1705061547676848400,5.611848388671875,-0.6295522870242596,-1.0278244598686694,1.9071186926975845
1705061547686788600,5.62178857421875,-1.7284946484282613,-1.4665636676579712,0.7526555196017026
1705061547696728600,5.631728515625,-3.142139503586292,-1.9728122310966252,-0.19353753576278684
1705061547706668500,5.64166845703125,-3.8647447528392074,-2.4273902285307645,-1.0580351814761757
1705061547716608500,5.6516083984375,-3.6202106048107145,-2.7505396481126545,-1.9527914795920251
1705061547726549500,5.661549560546875,-2.492894089576602,-2.909727755028009,-2.921121547962725
1705061547736489500,5.671489501953125,-1.3842675156347453,-2.8827485626876355,-3.893757496833801
1705061547746429400,5.681429443359375,-0.5909907934397459,-2.833389780756831,-4.810614859859645
1705061547756369700,5.69136962890625,-0.20763386565446854,-2.6626182035535573,-5.254236871254443
1705061547766309400,5.701309326171875,1.0555886651068924,-3.5626328605890274,-5.893057921883464
1705061547776249300,5.711249267578125,2.0312771334163844,-5.264211737301945,-5.971786006161571
1705061547786189600,5.721189453125,1.8751808550365268,-8.066470466735959,-5.229720854157209
1705061547796129500,5.731129638671875,-0.5016355166852474,-11.652121214818953,-4.460452345667779
1705061547806069500,5.741069580078125,-5.5559799301922315,-14.822493125677108,-4.800016601216793
1705061547816010500,5.751010498046875,-7.085151152932643,-15.47928880893588,-4.809993805351853
1705061547825950700,5.76095068359375,-3.476083873426914,-11.48427809228301,-1.806066256147623
1705061547835890400,5.770890380859375,1.8072183487921951,-6.016725802606344,2.3666692178472877
1705061547845830400,5.780830322265625,6.199443838191032,-1.4249404484152792,5.4197360610127445
1705061547855770600,5.7907705078125,8.013214677366614,1.6451836202740668,6.592479279425739
1705061547865710600,5.800710693359375,7.638384754908085,4.136522881624102,6.317766266232729
1705061547875650300,5.810650390625,6.020560266202688,5.932525424396991,6.675403646349906
1705061547885590500,5.820590576171875,4.6946077230229974,6.519740790951252,6.792834093987941
1705061547895530500,5.830530517578125,3.786943135756254,6.806250624921917,6.550745001024008
1705061547905471500,5.840471435546875,3.0318057362109423,6.806230751177668,6.278865165430307
1705061547915411500,5.850411376953125,2.7603181148052216,6.33715894896686,5.992700783896446
1705061547925351700,5.8603515625,2.952138325256109,5.183737101617456,5.897504964420199
1705061547935291600,5.870291748046875,3.4156846420437095,3.4313322930306196,5.926763207608461
1705061547945231400,5.8802314453125,3.9402778404682874,1.321187228474021,5.710580709317326
1705061547955171600,5.890171630859375,4.347185739710927,-0.6317319691509008,5.0420051564157005
1705061547965111600,5.900111572265625,4.2025417064547534,-2.1590748074203727,3.9806867154851555
1705061547975051500,5.910051513671875,3.4678654956579207,-2.815955246353149,2.921115995004773
1705061547984991500,5.919991455078125,2.3698272434867915,-2.4947031848251817,2.247950191703439
1705061547994932500,5.929932373046875,0.9306599706679582,-1.9134376665860413,1.9830656218245624
1705061548004872400,5.93987255859375,-1.707746751692891,-1.6879700380772351,1.4478826403245328
1705061548014812400,5.9498125,-5.3618245547920464,-1.8296908773630856,0.512385677954182
1705061548024752600,5.959752685546875,-7.365695356497168,-2.3923761982947584,0.15862740429267286
1705061548034692600,5.969692626953125,-6.556842148855329,-2.901540356919169,0.4786709668137133
1705061548044632300,5.97963232421875,-4.018741136330366,-3.0241935076415536,0.9444582674611359
1705061548054572500,5.989572509765625,-1.817155220916867,-2.4094056590288875,1.256372226475179
1705061548064512500,5.999512451171875,-0.08420271629691123,-1.728489679992199,1.5283699893601237
1705061548074452500,6.009452392578125,1.4054684168346225,-1.347153444379568,1.8447997452981768
1705061548084393500,6.0193935546875,2.348735355619341,-1.0757453179508447,2.0909847292736172
1705061548094333400,6.02933349609375,2.73671044472456,-0.5186942035138606,2.1537943827994166
1705061548104273700,6.039273681640625,2.7826322379440067,0.3385363738059997,2.209614031307399
1705061548114213400,6.04921337890625,2.615216985431313,1.2092372580736874,2.2152451690621673
1705061548124153600,6.059153564453125,2.2684002745360137,1.8833534939676522,2.1169772486642002
1705061548134093600,6.069093505859375,1.8688421535342932,2.3192238683223723,1.9778774055317043
1705061548144033500,6.079033447265625,1.5092267513424158,2.2475942178726194,1.7513386406600475
1705061548153973500,6.088973388671875,1.1242933680206537,1.7059119374811649,1.4801670994661749
1705061548163913500,6.09891357421875,0.4504775033127516,0.9994774863064289,1.1605356979425996
1705061548173854500,6.1088544921875,-0.6530512360334396,0.2784182974517345,0.7717045034646988
1705061548183794400,6.11879443359375,-1.9719085602551698,-0.4273825319945812,0.3105443511612713
1705061548193734400,6.128734375,-3.2155338256210086,-1.0119377394288778,-0.12830080122053622
1705061548203674600,6.138674560546875,-3.9813521936565635,-1.3787217180758713,-0.4755166675012558
1705061548213614300,6.1486142578125,-3.8809424389243126,-1.342436937251687,-0.7436640385683625
1705061548223554600,6.158554443359375,-2.924626633474231,-0.8860334779560566,-0.9097068336840718
1705061548233494500,6.16849462890625,-1.9035031325489282,-0.339473946917057,-0.8659053205542265
1705061548243434500,6.1784345703125,-1.2839105140030382,0.09652911390662193,-0.7838256608258932
1705061548253375500,6.18837548828125,-0.788350079447776,0.40924481775760646,-0.6302300401553511
1705061548263315500,6.1983154296875,0.2960416324257851,0.6104308224469422,-0.19918854726180432
1705061548273255700,6.208255615234375,1.3999924696415662,0.9172071993768215,0.23397198361232877
1705061548283195400,6.2181953125,2.1509762566387653,1.3215268356919287,0.5091434080973267
1705061548293135400,6.22813525390625,2.548877258083224,1.7784814991295337,0.60440659372136
1705061548303075600,6.23807568359375,2.325989563065022,2.307014375090599,0.5496129272602498
1705061548313015600,6.248015625,1.6632897703289984,2.443760933095217,0.3875996799215674
1705061548322955500,6.25795556640625,1.1961879530169068,1.9489532166033983,0.4134555673204362
1705061548332895500,6.2678955078125,1.201896393791586,1.0442419261842966,0.7665209633469581
1705061548342836700,6.277836669921875,1.4921161881960927,0.10764379763901233,1.1647032659508287
1705061548352776400,6.2877763671875,1.9988966665543615,-0.7185182722002268,1.4770713254079222
1705061548362716400,6.29771630859375,2.26294683143571,-1.3752847293645143,1.755771800801903
1705061548372656600,6.30765673828125,2.2014298480689525,-2.263223164159059,2.0066187852390107
1705061548382596600,6.3175966796875,2.1154005008667705,-3.0868484089970587,2.192738299830258
1705061548392536300,6.327536376953125,2.2297953802011907,-3.638741117757559,2.2333263308063147
1705061548402476500,6.3374765625,2.3298639202803373,-3.92958635058403,2.0820842144593597
1705061548412416500,6.34741650390625,2.4225521408498287,-3.7343472716003654,1.7252580045945942
1705061548422357500,6.357357421875,2.6534377027541396,-3.3404069904804228,1.3053944699279962
1705061548432297500,6.36729736328125,2.948594953560829,-2.920744239082932,0.8987279782257973
1705061548442237700,6.37723779296875,3.195384187039733,-2.4010101711273193,0.6650351768810302
1705061548452177400,6.387177490234375,3.2594588920652865,-2.5032050557106733,0.3859077813118696
1705061548462117400,6.397117431640625,3.209443692052364,-2.502561497110128,0.25383506033718584
1705061548472057600,6.4070576171875,3.1164217094838618,-2.484297526144981,0.17887385431192815
1705061548481997600,6.41699755859375,3.0955116079241036,-2.424697336184978,0.15490641100816427
1705061548491937300,6.426937255859375,2.890436779102683,-2.259602635574341,0.11809592580944299
1705061548501877500,6.43687744140625,2.748124988186359,-1.9279197809249162,0.19765541941039264
1705061548511818500,6.446818603515625,2.553760353949666,-1.5133283414423464,0.38299364743083714
1705061548521758500,6.456758544921875,2.258244206702709,-1.0673679502278566,0.5382625350758433
1705061548531698400,6.466698486328125,1.8821080239512025,-0.6836679080933332,0.6967379636771976
1705061548541638700,6.476638671875,1.4822786847926674,-0.3730488842606544,0.8783007648121565
1705061548551578600,6.48657861328125,1.0568431952126323,-0.14663900646567343,1.0405655026938765
1705061548561518300,6.496518310546875,0.6932195802927017,0.02012391961812973,1.2259139598473905
1705061548571458600,6.50645849609375,0.39429143264517186,0.09045300886332988,1.4193708315894007
1705061548581398500,6.5163984375,0.12363397845327853,0.10549743326008319,1.6213716597929595
1705061548591339500,6.526339599609375,-0.08189911552965641,0.007197802549600601,1.8216189223274588
1705061548601279500,6.536279541015625,-0.1926864718914032,-0.15848609612584114,2.0174059905827044
1705061548611219500,6.546219482421875,-0.13581936015710233,-0.2706377265781164,2.2062350563935933
1705061548621159700,6.55615966796875,-0.03983049060702323,-0.1725607987076044,2.328195694807172
1705061548631099400,6.566099365234375,0.10903569038882852,0.1206768822133541,2.4261390594258905
1705061548641039600,6.57603955078125,0.31928572989106174,0.4920201315999031,2.4719208596527573
1705061548650979600,6.5859794921875,0.7050269224643707,0.7858587010234593,2.5108158229753372
1705061548660919600,6.59591943359375,1.005281204149127,1.0761556523174047,2.5105437280356884
1705061548670860500,6.605860595703125,1.2233673441044985,1.4569552968353032,2.4901874609664083
1705061548680800500,6.615800537109375,1.485266614562273,1.868508391535282,2.416868249994516
1705061548690740200,6.625740234375,1.7432757457137107,2.190363679653406,2.343089604817331
1705061548700680200,6.63568017578125,1.9507938760340213,2.464169514873624,2.2971594821609553
1705061548710620400,6.645620361328125,2.1056309481330215,2.6243068853378295,2.2905087921001015
1705061548720560400,6.655560302734375,2.140026261948794,2.4794448254168033,2.2909610659122466
1705061548730500400,6.665500244140625,2.1766760766930875,1.9231687870055436,2.361231118446588
1705061548740440300,6.6754404296875,2.2249814040482043,1.262805182132125,2.5402397781193256
1705061548750381300,6.68538134765625,1.9767809885971246,0.6809457896530627,2.800252065786719
1705061548760321300,6.6953212890625,1.546416372051835,0.22925708391964433,3.0555797027692195
1705061548770261200,6.70526123046875,1.128093929347396,-0.6141928053289651,3.3023899790361524
1705061548780201500,6.715201416015625,0.5808084221214056,-1.3320739486694335,3.441657872211933
1705061548790141400,6.725141357421875,-0.2374928512148559,-1.4274234974026678,3.3328654890596865
1705061548800081200,6.7350810546875,-1.071350151731819,-1.1294155333399771,3.1031244210153814
1705061548810021400,6.745021484375,-1.8782447726517915,-0.8272825983017682,2.8518448903799056
1705061548819961300,6.75496142578125,-2.3505554106533526,-0.6959037048101425,2.6100059727847573
1705061548829902300,6.76490234375,-2.3357671529747543,-0.7396265266805887,2.2890587394222615
1705061548839842300,6.77484228515625,-1.7437344492666422,-0.9299281492620706,1.9484213016837835
1705061548849782500,6.784782470703125,-0.4101758149974048,-1.2012246320098638,1.4958929302558301
1705061548859722500,6.794722412109375,1.0139192686349152,-1.6228022771179675,1.1451336192145942
1705061548869662200,6.804662109375,2.0241597026266156,-1.913835725992918,0.744741677737236
1705061548879602400,6.8146025390625,2.510984457540512,-1.9923492907375095,0.3046343964651227
1705061548889542400,6.82454248046875,2.248119118529558,-1.7867513148248195,-0.02698269947171211
1705061548899482400,6.834482421875,1.995810244846344,-1.6500257996082306,-0.3296232917711139
1705061548909423400,6.84442333984375,1.4421401511497796,-1.3023118476122617,-0.422455596986413
1705061548919363300,6.85436328125,0.6958763784117996,-0.9247399329692125,-0.4583253672689199
1705061548929303300,6.86430322265625,0.7658250900372863,-0.6724591163367033,-0.5847065986037254
1705061548939243300,6.8742431640625,0.501454461029917,-0.5536123721599578,-0.4960100780189037
1705061548949183500,6.88418359375,-0.5324249149635434,-0.5542103380531073,-0.001199146656692028
1705061548959123500,6.89412353515625,-0.7521838104367256,-0.7115367427498102,-0.12042086162567138
1705061548969063200,6.904063232421875,-0.643579935593903,-1.1855343109250067,-0.36906653662621974
1705061548979003400,6.91400341796875,-0.47008273281902074,-1.860580521145463,-0.6536129615694284
1705061548988944400,6.9239443359375,-0.05774579426497221,-2.585525027000904,-1.005141211156547
1705061548998884400,6.93388427734375,0.6797957428351045,-3.161080350899696,-1.5605483577787875
1705061549008824300,6.94382421875,1.3054554063349961,-3.539089487916231,-2.015497234351933
1705061549018764300,6.953764404296875,1.5934101784169672,-3.5013685368090868,-2.3377264703489837
1705061549028704500,6.96370458984375,1.686200398056209,-3.008812398636341,-2.5881150434941054
1705061549038644200,6.973644287109375,1.648209982357919,-2.010703862595558,-2.7156635650426146
1705061549048584400,6.98358447265625,1.3241554306298493,-1.0142810876846313,-2.432547319032997
1705061549058524400,6.9935244140625,0.9521233221963047,-0.19213000705242156,-2.0732829222358764
1705061549068465200,7.003465087890625,0.5156339391604066,0.4199778086960315,-1.6515741980940102
1705061549078405400,7.0134052734375,0.20763737278580666,0.7628063267379999,-1.2311844475962221
1705061549088345300,7.023345458984375,0.06386836879849433,0.8595125507771968,-0.8560071730047464
1705061549098285300,7.033285400390625,0.07437631880939007,0.8145107950121164,-0.5891860821053385
1705061549108225300,7.043225341796875,0.14482844991236923,0.700233258447051,-0.4490134951747954
1705061549118165200,7.053165283203125,0.0362529243811965,0.6235726280927658,-0.33429303714782
1705061549128105500,7.06310546875,0.006510697068274021,0.41550270910859105,-0.2651858178477734
1705061549138045200,7.073045166015625,-0.054169981604814524,0.4097328935354948,-0.3314733035519719
1705061549147986400,7.082986328125,-0.0775704386755824,0.4198059592604637,-0.3504284716516733
1705061549157926400,7.092926513671875,-0.09295447029024362,0.39518355917930603,-0.3421573407821357
1705061549167866000,7.1028662109375,-0.06796002202630043,0.7246031450718641,-0.5882290736414492
1705061549177806300,7.112806396484375,0.08177110523581504,0.8431716568291187,-0.7811519115719944
1705061549187746300,7.122746337890625,0.10012333900630474,0.8667389948993921,-0.9035494070328771
1705061549197686500,7.1326865234375,0.2076829654932022,0.8786375224858521,-1.081310258601606
1705061549207626200,7.142626220703125,0.4070043453544378,0.8610925134450197,-1.3960978002905844
1705061549217566200,7.152566162109375,0.4045680581182241,0.8583592890888452,-1.4881120671212673
1705061549227507500,7.162507568359375,0.49622927372753617,0.8793927247673272,-1.7755492450699208
1705061549237447200,7.172447265625,0.5490887572556734,0.9492132799685001,-2.0196360877223314
1705061549247387400,7.182387451171875,0.3815881645470857,1.035299910315871,-2.183343864019215
1705061549257327400,7.192327392578125,0.44562253756225106,1.118822827655077,-2.300940608134866
1705061549267267600,7.202267578125,0.49225627844333647,1.2251584653049707,-2.334162640387565
1705061549277207300,7.212207275390625,0.6744008980542421,1.2860802592575549,-2.366136718405783
1705061549287147300,7.222147216796875,0.935818960866332,1.4936743774235248,-2.345219310322404
1705061549297088500,7.232088623046875,0.9344029565885662,1.6630998007148503,-2.1741893744438885
1705061549307028200,7.2420283203125,0.8437272448852657,1.9340064073622225,-1.8519950636297464
1705061549316968400,7.251968505859375,0.7982961577922105,2.111431012713909,-1.49296506011039
1705061549326908400,7.261908447265625,0.6320794674143195,2.1236042655885217,-1.1158094711832702
1705061549336848400,7.271848388671875,0.2884714894324541,2.0530179867118594,-0.6433521181873977
1705061549346788400,7.281788330078125,0.1757128329977393,1.87399529851377,-0.2663224937275052
1705061549356728300,7.291728271484375,0.15742548115700483,1.7665964155465363,-0.04292699531763792
1705061549366668500,7.30166845703125,0.06473550702184439,1.823757395660877,-0.012670973263680933
1705061549376609300,7.311609375,-0.1422878255188465,1.9278145669847726,-0.022071984945982694
1705061549386549200,7.32154931640625,-0.18334230496287346,2.089281724748015,-0.15837357566207647
1705061549396489500,7.331489501953125,-0.19569646736234425,2.2985107506394384,-0.37579876749068497
1705061549406429200,7.34142919921875,-0.23080782049298285,2.451155134999752,-0.7687906618446111
1705061549416369400,7.351369384765625,-0.18036884211003779,2.582020818272233,-1.1754476550661026
1705061549426309400,7.361309326171875,-0.172886085139215,2.51673264580369,-1.3094703410647808
1705061549436249300,7.371249267578125,0.043349604643881316,2.1342449020683762,-1.2045489541269838
1705061549446190300,7.3811904296875,0.2658423089951277,1.8139689920961857,-1.0503177389666438
1705061549456130300,7.39113037109375,0.32371859777197237,1.5411024835526943,-0.537132946524024
1705061549466070500,7.401070556640625,0.866863059670478,1.3256447924047707,0.0016118191108107566
1705061549476010200,7.41101025390625,1.3987247877933084,1.1091501594245434,0.5070809226095676
1705061549485950200,7.4209501953125,1.7616227187871931,0.8735416606515646,1.0300424281790852
1705061549495890400,7.430890380859375,1.5737212892152368,0.5573784466952085,1.6969021170735359
1705061549505830400,7.440830322265625,0.9505249470889567,0.032463176709413524,2.677762288932502
1705061549515770400,7.450770263671875,-0.0989518840741366,-0.5216688354104757,3.1911510795146225
1705061549525711400,7.46071142578125,-1.140876254031062,-1.083292664590478,3.416571361750364
1705061549535651300,7.4706513671875,-1.878573858475685,-1.4498036715149878,3.4575358248233794
1705061549545591300,7.48059130859375,-2.34852770421803,-1.755681053778529,3.3549019643008706
1705061549555531300,7.49053125,-2.6292431726962326,-2.254935812807083,3.6969139052629467
1705061549565471500,7.500471435546875,-2.521757780489325,-2.493335988125205,3.839306652460992
1705061549575411200,7.5104111328125,-2.214984326168895,-2.7441636833399534,4.36168948135972
1705061549585351200,7.52035107421875,-1.5801666659623383,-2.654733587783575,4.60130546220839
1705061549595292400,7.53029248046875,-0.616731383895874,-2.3384978931128977,4.874000998099148
1705061549605232000,7.540232177734375,0.2578852125108242,-1.8246242416232823,5.0166626253664495
1705061549615172400,7.55017236328125,0.8997522067070007,-1.4371172084212303,5.1121302475214
1705061549625112300,7.5601123046875,0.6974182010263205,-1.1280933448255062,4.95114356675148
1705061549635052500,7.570052490234375,-0.32438100720345975,-0.9689981768906116,4.164897619976103
1705061549644992300,7.5799921875,-1.3941899208426474,-1.1663292597174644,2.7606074531406164
1705061549654932200,7.58993212890625,-2.986051116251945,-2.3244734594136474,1.2688210814207792
1705061549664872400,7.59987255859375,-5.108803148925304,-4.827471009853482,-0.40577217321097847
1705061549674813200,7.609813232421875,-5.100393047976493,-7.0977411699146025,-1.967153328552097
1705061549684753400,7.61975341796875,0.02010638396143913,-7.249930211722851,-1.5306711059093474
1705061549694693400,7.629693359375,5.5397933500230305,-5.588027511838078,0.25456176717653867
1705061549704633300,7.63963330078125,6.165863640150428,-3.9820273164391513,0.7231611295700073
1705061549714573300,7.6495732421875,4.608165411105752,-1.7691957843899726,0.20043299436494708
1705061549724513300,7.65951318359375,3.7213743927806613,-0.3509557103961706,-0.14939488104507326
1705061549734453500,7.66945361328125,3.6799244842782612,0.46857145147323603,-0.27371932598054405
1705061549744394200,7.679394287109375,4.3430309581190345,0.8637059108138084,-0.15066928489506243
1705061549754334500,7.68933447265625,5.249179587864876,1.1197709221601486,-0.12168430569022894
1705061549764274400,7.6992744140625,5.954169100928306,1.333091016757488,-0.037385435542464256
1705061549774214100,7.709214111328125,6.603833032611012,1.4178846846848725,0.11485847825817763
1705061549784154400,7.719154296875,7.064907990849018,1.1775281146019696,0.03596826222091913
1705061549794094300,7.72909423828125,7.407997790175676,0.7165069323778152,-0.10444456320628523
1705061549804034300,7.739034423828125,7.954934922355413,0.21950725879967212,-0.463295922223106
1705061549813975300,7.748975341796875,8.33249163942933,-0.28013036206662656,-0.9716957454115152
1705061549823915000,7.7589150390625,8.362956335797906,-0.8854542167633771,-1.2818852917857468
1705061549833855000,7.76885498046875,8.17032890061736,-1.2385679819762705,-1.5274877996981142
1705061549843795000,7.778794921875,7.8001114403903475,-1.1805927628695965,-1.9439457637049256
1705061549853735000,7.78873486328125,6.954392437165975,-0.5921557455658912,-2.3289716476157305
1705061549863675000,7.7986748046875,5.925557338950037,0.14922551582753657,-2.4003375325627623
1705061549873615000,7.808614990234375,4.97078233320117,0.8004355079084634,-2.4518942629292604
1705061549883555800,7.818555908203125,4.1576597776770585,1.2216828981488943,-2.5328300863847133
1705061549893496000,7.82849609375,3.333236075937748,1.4358067103445529,-2.6470751819849014
1705061549903436000,7.83843603515625,2.6079689139991995,1.4417133040398358,-2.845366926537454
1705061549913375700,7.848375732421875,1.2794162713237105,1.1199135455012321,-3.2049200771480795
1705061549923316000,7.85831591796875,-4.2187943375974895,0.6734089644074439,-4.0909252057924865
1705061549933256000,7.868255859375,-9.42064811066389,-0.06373743589520454,-4.696551842828095
1705061549943196200,7.878196044921875,-6.13771598855257,-1.1521703859835863,-3.976698522631824
1705061549953137000,7.888136962890625,-0.7681652234226465,-2.08205586514771,-3.13472981185168
1705061549963077000,7.8980771484375,3.4808687696158884,-2.854476992449164,-2.9541736304759976
1705061549973017000,7.90801708984375,4.722324289727211,-2.944650599849224,-3.3255347077801822
1705061549982956800,7.917956787109375,3.9231788216292856,-2.674347219792008,-3.65349035860002
1705061549992897000,7.92789697265625,2.7667279818475246,-2.2581915997326374,-3.853400644265115
1705061550002837000,7.9378369140625,1.44403677855134,-1.4575140997618437,-4.159890605469048
1705061550012777200,7.947777099609375,0.6706395727593452,-0.44944531072080135,-4.666630459555983
1705061550022717000,7.957717041015625,0.9705470868330448,0.41022623001039027,-5.099337985965609
1705061550032658000,7.967657958984375,1.940064976748824,1.138341767117381,-5.304730794695019
1705061550042598000,7.977597900390625,2.510456634274125,1.5886001477867364,-5.345678306633234
1705061550052537900,7.987537841796875,1.0421347247719763,1.9089462003856896,-5.276619383454323
1705061550062478000,7.99747802734375,-1.68503281558156,1.995807906758785,-4.9201726744264365
1705061550072418000,8.00741796875,-3.267727538716793,1.5619652388393879,-4.55970650062412
1705061550082357800,8.017357666015625,-3.552956100705266,0.4865466686248779,-3.8551734991565345
1705061550092298000,8.027298095703125,-3.1573405798494814,-0.3173281660825014,-3.186903651203215
1705061550102239000,8.037239013671876,-2.490021749010682,-0.7745791821181773,-2.70366157708168
1705061550112179000,8.047178955078126,-2.000133368742466,-0.7407604991465806,-2.419996318887174
1705061550122119000,8.057118896484376,-1.718927486398816,-0.26662323023974893,-2.1588333998799323
1705061550132059000,8.067058837890626,-0.9310346491992473,0.20667057358026503,-1.7409658613361416
1705061550141999000,8.0769990234375,-0.057748442879784846,0.6061357556015252,-1.3620273345150054
1705061550151938800,8.086938720703126,0.2533446464717388,0.912116598239541,-0.8379071604296564
1705061550161879000,8.096879150390626,0.44960141459796577,1.2726561295390129,-0.36669659262448545
1705061550171820000,8.106820068359376,0.6424988623589277,1.7422598466694355,-0.050477264566719526
1705061550181760000,8.116760009765626,1.3342454474896193,2.195264311176538,0.09316811304092407
1705061550191700000,8.126699951171876,2.115074922174215,2.3934429507434367,0.21973186133578418
1705061550201640000,8.136639892578126,2.564817754536867,2.4302608155310153,0.38188670910224315
1705061550211580200,8.146580078125,2.780430928507447,2.135852921786904,0.4581054409079253
1705061550221520000,8.156519775390626,2.885866986969113,1.4090665874570607,0.46192441467419265
1705061550231459800,8.1664599609375,2.968077068144083,0.3387795349121094,0.42239999434165654
1705061550241400800,8.17640087890625,3.1480396675407887,-0.9228624486595391,0.3204471018206328
1705061550251340800,8.1863408203125,3.3743823253184555,-2.2744711188822984,0.26183628822416066
1705061550261281000,8.196281005859374,3.647185120975971,-3.433416113567352,0.37175409520976244
1705061550271221000,8.206220947265624,3.9293244847774504,-4.170038782256841,0.5975261865578592
1705061550281161000,8.216160888671874,4.1770489532798525,-4.41107398225367,0.913416574922204
1705061550291101000,8.226100830078124,4.199879793769121,-4.121964779439568,1.1995829292174427
1705061550301042200,8.236042236328124,3.935222310644388,-3.4649142446368932,1.435764478638023
1705061550310982000,8.24598193359375,3.539783315399289,-2.796777667674422,1.6360221164360642
1705061550320921900,8.255921875,3.0907378176510334,-2.14186589846611,1.5481316515371202
1705061550330862000,8.265862060546874,2.6401047584503887,-1.5656582481384276,1.5029546853356062
1705061550340802000,8.275802001953124,2.3250552048243582,-1.2786954097032546,1.6920583303041754
1705061550350741800,8.28574169921875,2.2484505424410104,-1.0127110618889332,1.690702385650575
1705061550360682000,8.295681884765624,2.2447329832226037,-0.7382038004010916,1.7008786194890737
1705061550370623000,8.305623046875,2.2282925744228064,-0.4231435792505741,1.6451038330361245
1705061550380563000,8.31556298828125,2.3725404479682446,-0.2897597756773233,1.436009831701219
1705061550390503000,8.3255029296875,2.6142864265829324,-0.2116431012958288,1.2497095537155867
1705061550400443100,8.335443115234375,2.913665678998828,-0.14069500336945057,1.0472403042826801
1705061550410383000,8.345383056640625,3.243872031354904,-0.05772971991300582,0.8425207917049526
1705061550420322800,8.35532275390625,3.395249172258377,0.09056874419748782,0.5484495095040649
1705061550430263000,8.365262939453125,3.0059318747639656,0.3392179263293743,0.19794168900586664
1705061550440204000,8.3752041015625,0.9815490309059619,0.6387357104331255,-0.14347842354290186
1705061550450144000,8.38514404296875,-3.7025153785318135,0.848385592085123,-0.4527139205953106
1705061550460084000,8.395083984375,-8.620463362646102,0.8702952260762452,-0.5324299564648419
1705061550470024000,8.40502392578125,-7.624042341300845,0.40530455569922924,-0.5465378306638449
1705061550479964000,8.4149638671875,-3.3595512514114376,-0.45754503054618834,-0.7217131957840174
1705061550489903900,8.42490380859375,0.5015537201533093,-0.8635644565165043,-1.306563367576897
1705061550499844000,8.434843994140625,2.1843045257449147,-0.41260231149196624,-1.9782383477985859
1705061550509784800,8.444784912109375,2.3912054009497163,0.42858723160922524,-2.463730538934469
1705061550519725000,8.45472509765625,1.7299620906323194,1.0133908608466387,-2.5889368812710045
1705061550529665000,8.4646650390625,1.1580056680083275,1.2234995921820402,-2.56003753452301
1705061550539605000,8.47460498046875,0.9562731353521347,1.2372259197175501,-2.367169860845804
1705061550549545000,8.484544921875,0.7949836722433566,0.9811854582905769,-2.122870690616965
1705061550559485000,8.49448486328125,0.6946891413886099,0.7382891405969858,-1.8324797774292527
1705061550569425000,8.5044248046875,0.46892917886972424,0.5573667562574148,-1.6809870473220943
1705061550579366000,8.514365966796875,0.18669570704400537,0.6476946774363518,-1.4845815549075603
1705061550589305900,8.524305908203125,0.07271978377401829,0.8829472023785114,-1.2822456495307386
1705061550599246000,8.53424609375,0.15430961415879427,1.0415402660101651,-0.987054350323975
1705061550609186000,8.54418603515625,0.11620002906024456,0.9364777170360088,-0.7584172979988157
1705061550619126000,8.5541259765625,0.04792378069162369,0.6251484991073608,-0.6640621671304107
1705061550629066000,8.56406591796875,0.013289032096788287,0.28569676402211186,-0.6131413965798914
1705061550639006000,8.574005859375,0.2375409281402826,0.018896423649787903,-0.6431353336315602
1705061550648947000,8.583947021484375,0.7396721193879843,-0.15339315690100191,-0.7416033797115087
1705061550658887000,8.593886962890625,0.9110919313669205,-0.22457331001758574,-0.7565135832693427
1705061550668827100,8.6038271484375,0.8054771553374827,-0.32594811038970944,-0.7362402452431619
1705061550678766800,8.613766845703125,0.544780392537266,-0.45458092004358763,-0.7548943845696747
1705061550688706800,8.623706787109375,0.10369710583984851,-0.6433247917890549,-0.7486640388127416
1705061550698647000,8.63364697265625,-0.0056564183264970775,-0.8627449568271637,-0.74664575779289
1705061550708587800,8.643587890625,0.20274317100346087,-0.8566314423829317,-0.7676274632841348
1705061550718528000,8.653528076171876,0.553302575558424,-0.8350538168251513,-0.8595466722425072
1705061550728468000,8.663468017578126,1.0235574500739575,-0.8583703950047492,-1.0435771786652506
1705061550738408200,8.673408203125,1.5230869343906641,-0.8028893308013677,-1.3161929273180664
1705061550748348000,8.683347900390626,2.1472668807268143,-0.6138304017573595,-1.730938972840458
1705061550758288000,8.693287841796876,2.6944109336555004,-0.507718051469326,-2.158719710372388
1705061550768228000,8.70322802734375,2.6942256402164695,-0.5408206951260567,-2.428107144628465
1705061550778168800,8.7131689453125,2.107336583007127,-0.6660819825202227,-2.6646634456455707
1705061550788109000,8.723109130859376,1.4381168869830667,-0.7710673746049403,-2.9534149210631844
1705061550798049000,8.733049072265626,1.177798894367367,-0.6754582981526851,-3.4257235132381316
1705061550807989000,8.742989013671876,1.7158518783457577,-0.3285819660246372,-4.18734764445424
1705061550817929000,8.752928955078126,2.3003765445113182,-0.16852993575632572,-4.8750908391624685
1705061550827869000,8.762868896484376,2.5155320378422736,-0.1581342139482498,-5.371066430389881
1705061550837809200,8.77280908203125,2.5245482879906893,-0.22028525743484495,-5.791245314615964
1705061550847750000,8.78275,2.2390543530642986,-0.6048100599557161,-5.898929444265366
1705061550857689900,8.79268994140625,2.1466348664335904,-1.0599714102357625,-6.047614277344942
1705061550867630000,8.802630126953124,2.671764217561483,-1.564624228915572,-6.279280760493874
1705061550877569800,8.81256982421875,3.5549656869620083,-1.7402251259714363,-6.669121789601445
1705061550887510000,8.822510009765624,3.992873704624176,-1.5878759251654146,-6.966211469775438
1705061550897450000,8.832449951171874,3.8500457808792587,-1.4038900616019963,-6.812010503622889
1705061550907391000,8.842390869140624,3.6899656935602425,-1.27829384316504,-6.496559237328172
1705061550917331000,8.8523310546875,3.5202684675902125,-1.1547767690896986,-6.163604463046789
1705061550927271000,8.86227099609375,3.392121395626664,-1.1421095952183007,-5.7092555981934066
1705061550937211100,8.872211181640624,3.4161282941579816,-1.3392600607812404,-5.230881714630127
1705061550947150800,8.88215087890625,3.4081799655020233,-1.6766320669829844,-4.67844130885899
1705061550957091300,8.89209130859375,3.2846324962884186,-1.9855477940291164,-4.052064144739508
1705061550967031600,8.902031494140624,3.104379389512539,-2.2432225786596534,-3.409924178820848
1705061550976972300,8.91197216796875,2.754405091369152,-2.420689854109287,-2.665795080024004
1705061550986912500,8.92191259765625,2.229605702847987,-2.6714631887882945,-1.7886622630126774
1705061550996852500,8.9318525390625,1.810120061583072,-3.0579993311315774,-0.890157133757323
1705061551006792200,8.941792236328125,1.9729566080033778,-3.7110885610878466,0.09338540905341505
1705061551016732400,8.951732421875,2.513666243970394,-4.331366823810339,1.0536571855876593
1705061551026672400,8.96167236328125,2.6673955009579657,-4.4163089602977035,2.0292624325931072
1705061551036613400,8.97161328125,1.794582300711423,-4.00276849117279,3.2605592545226214
1705061551046553300,8.98155322265625,0.43893619166612624,-3.4496178913056847,4.038423157399893
1705061551056493300,8.991493408203125,-0.56677522059381,-3.0502836421877144,5.556119630923867
1705061551066433500,9.00143359375,-2.0167530796319246,-2.9367706602543593,8.202160209164022
1705061551076373200,9.011373291015625,-3.750110657921433,-2.723148952361941,9.964743297415971
1705061551086313500,9.0213134765625,-3.9025498750984666,-2.5538024395257235,10.898713415545224
1705061551096253400,9.03125341796875,-2.3681506885766983,-2.136390097403526,10.05799558160901
1705061551106194400,9.0411943359375,-1.7318758152991531,-1.2504752773910761,6.7952019921630615
1705061551116134400,9.051134521484375,-0.47165129730999467,0.1881149261921644,4.3172129185125225
1705061551126074400,9.061074462890625,1.4705603360787034,1.1370371142596005,2.6102608243286607
1705061551136014300,9.071014404296875,4.0466330596014854,1.4922896450668572,0.7039709106054156
1705061551145954300,9.080954345703125,6.000114275023341,1.5518530101478099,-0.5708500688172876
1705061551155894300,9.090894287109375,6.304021818518638,1.6036714601904154,-0.8888212820436805
1705061551165835300,9.100835205078125,6.37181116015315,1.750333847531676,-1.1114399508621542
1705061551175775200,9.110775146484375,5.805329369547962,1.6402625304847955,-1.0695634144455193
1705061551185715500,9.120715576171875,5.3063884987741705,1.6822890698313713,-1.1064824015200136
1705061551195655400,9.130655517578125,4.9866696381628515,1.964733554059267,-1.4888788137100637
1705061551205595400,9.140595458984375,4.178805733819305,2.1847844182163474,-1.6974600432172418
1705061551215535400,9.150535400390625,3.7601831391245124,2.2992039936006066,-1.9626713608324526
1705061551225475300,9.160475341796875,3.3404689498007296,2.20926770208776,-1.990851161134243
1705061551235416300,9.170416259765625,2.9437042589098215,1.9265613520532845,-2.209366632417589
1705061551245356300,9.180356201171875,2.697285612308979,1.3963830469727516,-2.2798097034312783
1705061551255296500,9.190296630859375,2.3509864955469966,0.6639490621447562,-2.21889127047956
1705061551265236500,9.200236572265625,1.8837503843307495,-0.20191724157333374,-1.9710703558653593
1705061551275176200,9.21017626953125,1.5205349118202924,-0.9554811081916094,-1.416430686484277
1705061551285116400,9.220116455078125,1.4514201668009161,-1.4898551113963125,-0.8972557137161493
1705061551295057400,9.230057373046876,1.8001500178411602,-1.8221084594100712,-0.5621954915881157
1705061551304997400,9.239997314453126,2.0584382581949234,-1.6465321122735739,-0.2076775586657226
1705061551314937300,9.249937255859376,1.804523995141685,-0.9674906949371099,0.2906365585118532
1705061551324877600,9.259877685546876,1.5774083071649074,-0.12820377058684826,0.9024648266665637
1705061551334817500,9.269817626953126,1.8524235181748865,0.5330646741718054,1.5044976769939065
1705061551344757200,9.27975732421875,2.073763253098726,0.9344237071156501,2.0313839547917247
1705061551354697500,9.289697509765626,2.258796287627518,1.0461766936391592,2.4018425302982327
1705061551364638200,9.29963818359375,2.263891564939916,1.0430863264083863,2.6861072156906127
1705061551374578400,9.309578369140626,2.0101696095883845,0.9772411045789718,2.898976643911004
1705061551384518400,9.319518310546876,1.8812655817776918,0.8481827629894018,3.0993147995993495
1705061551394458400,9.329458251953126,1.8446575603485107,0.6656377458840608,3.376979356074333
1705061551404398300,9.3393984375,1.6982490016378462,0.5478975016444921,3.566978196316957
1705061551414338300,9.34933837890625,1.4934645340651274,0.6107195762604475,3.6156150937139984
1705061551424279600,9.359279541015624,0.6741551065996289,0.6843523832261562,3.816740015865862
1705061551434219300,9.36921923828125,0.17006985867470503,1.0095318473309278,3.8726121252134442
1705061551444159500,9.379159423828124,-0.05332067129909992,1.4507289696663617,3.809435538071394
1705061551454099500,9.389099365234374,-0.02455284197628498,1.8711241269916294,3.735023563426733
1705061551464039400,9.399039306640624,0.07560936773568391,2.1966309233546255,3.57787397660166
1705061551473979400,9.4089794921875,0.08643456700220703,2.364702593949437,3.3706226805239914
1705061551483920400,9.41892041015625,0.07942717245817184,2.233240698349476,3.0975264548778534
1705061551493860600,9.428860595703124,-0.10265957948565482,1.6994763514757156,2.7524013503313065
1705061551503800300,9.43880029296875,-0.8682065832339226,0.7624345708161592,2.1821938172012567
1705061551513740300,9.448740234375,-1.8289520416945217,-0.3629202889561653,1.5507494328200817
1705061551523680500,9.458680419921874,-2.5144208617299793,-1.5987492013573645,0.8701163623780012
1705061551533620500,9.468620361328124,-3.0356466295480726,-2.584334940433502,0.13517331733852625
1705061551543560400,9.478560546875,-3.227911076635122,-3.1534985174685715,-0.47383010265380143
1705061551553501400,9.48850146484375,-2.4851550197571513,-3.275351457723975,-1.160915710236132
1705061551563441200,9.498441162109375,-1.2375666959792375,-3.159092391952872,-1.7907050208866595
1705061551573381400,9.50838134765625,0.5780079777479171,-2.781501772609353,-2.1859575536489486
1705061551583321300,9.5183212890625,1.8354812973327934,-2.4112848969042298,-2.307117250943184
1705061551593261600,9.528261474609375,0.9168995947323739,-2.2863526953339575,-2.5939824742227793
1705061551603201300,9.538201171875,0.08414426410794258,-3.132768448650837,-2.7107091575056312
1705061551613142500,9.548142578125,1.027436191203445,-5.260199579051137,-1.6015823789566754
1705061551623082500,9.55808251953125,2.154564198128134,-8.394421149119735,0.16769567688927053
1705061551633022200,9.568022216796875,0.04305822048187256,-11.941087794291972,0.7752671643823384
1705061551642962400,9.57796240234375,-6.724090812629461,-14.577085117423534,-0.47113136508911846
1705061551652902400,9.58790234375,-7.910252900063991,-13.085857548630237,-1.4183236606240273
1705061551662842400,9.59784228515625,-5.46664803431332,-8.576857445153594,-0.19704773584082722
1705061551672782300,9.6077822265625,-1.9169576574057339,-3.159627814003825,1.6277829881399868
1705061551682723300,9.617723388671875,2.98844882504344,1.2053624624669552,3.380035821035504
1705061551692663600,9.62766357421875,6.375725118726492,4.151724542409181,4.482993555560708
1705061551702603300,9.637603271484375,7.572682156419754,6.103899643668532,4.8346743653610345
1705061551712543500,9.64754345703125,6.767769210836291,7.537466466131806,5.009036368271708
1705061551722483500,9.6574833984375,5.083942848435044,8.17018043205738,5.096555661770701
1705061551732423400,9.66742333984375,3.853897195610404,8.140040729859471,4.712343286199867
1705061551742364400,9.677364501953125,2.9146248794198035,7.91840581138134,4.116701159822941
1705061551752304400,9.687304443359375,2.5956337485611436,6.529006047424674,3.658891340860724
1705061551762244400,9.697244384765625,2.69797359457314,3.78715531720221,3.006348638871312
1705061551772184300,9.707184326171875,2.7264140916377304,0.8090566212594509,2.1278420492887498
1705061551782124300,9.717124267578125,1.7325107522018253,-2.0313632042646406,1.0449145647488534
1705061551792064500,9.727064453125,-0.4679565344452858,-4.384613260829449,-0.029641543417423963
1705061551802005200,9.737005126953125,-2.47245745074749,-5.705830299919843,-0.7352521840538829
1705061551811945500,9.746945556640625,-3.1378397605657575,-5.870421142661571,-1.1114802098073064
1705061551821885400,9.756885498046875,-3.3226883784383534,-4.694393495750427,-1.4959163111314178
1705061551831825400,9.766825439453125,-3.1613071453928945,-2.7288509633958338,-1.826579759605229
1705061551841765400,9.776765380859375,-2.016917476413399,-1.294683252429962,-1.719457063230872
1705061551851705300,9.786705322265625,-0.4395533006511628,-0.4370990393668413,-1.317863637009263
1705061551861646300,9.796646240234375,0.708568978985399,0.315889073190093,-0.9781193487182259
1705061551871586300,9.80658642578125,1.2541710631690919,0.9321388110488653,-0.6112889005810022
1705061551881526500,9.816526611328126,1.385085992410779,1.4665765271395443,-0.4000872594423592
1705061551891466500,9.826466552734376,1.1393939065188168,1.8589672407299278,-0.22874160867817697
1705061551901406200,9.83640625,0.7448229262799024,2.110937091717124,0.015203560481220483
1705061551911346400,9.846346435546875,0.44319677172005173,1.9833049835383891,0.5058545956850051
1705061551921286400,9.856286376953125,0.354721346540004,1.3102607607901096,0.9742145963646471
1705061551931227400,9.866227294921876,0.14974281769990921,0.6283160232275724,1.317606155116856
1705061551941167400,9.87616748046875,-0.3431745550006628,0.1580740081936121,1.6352840114198623
1705061551951107600,9.886107666015626,-1.1325840803734957,-0.09752163207530974,2.027117529518902
1705061551961047300,9.89604736328125,-1.8404482720904052,-0.10755261222422122,2.4604174688637257
1705061551970987300,9.9059873046875,-2.125055779571086,0.1170563536286354,2.8955513456374407
1705061551980927500,9.915927490234376,-2.1606302201688288,0.49623453442454335,3.2510046597138045
1705061551990868200,9.9258681640625,-2.2049344951890406,1.1114619434982538,3.4322423936128614
1705061552000808400,9.935808349609376,-2.017772924198955,1.7317442978739737,3.608722996112704
1705061552010748400,9.94574853515625,-1.1673130100578069,2.1261673940747974,3.6781340937301517
1705061552020688400,9.9556884765625,0.16602175232768057,2.2585019808560607,3.553724162468314
1705061552030628400,9.96562841796875,1.6520628583937882,2.180857600161433,3.325122912108898
1705061552040568300,9.975568359375,3.215284819296002,1.9876473966568706,2.96526668689847
1705061552050509600,9.985509521484374,4.288776220840216,1.64819916870296,2.516572194544971
1705061552060449300,9.99544921875,4.328302760064601,1.1554302645623684,1.9738433277100322
1705061552070389200,10.00538916015625,3.7120489305526014,0.5323813680827617,1.4606825006648898
1705061552080329500,10.01532958984375,2.769804905074835,-0.2102145297974348,1.008230847734958
1705061552090270500,10.0252705078125,1.798684329202771,-0.9785404967397451,0.6172110571715981
1705061552100210700,10.035210693359375,1.3952311004586517,-1.8028513857543467,0.3785049577094614
1705061552110151400,10.0451513671875,1.805672872915864,-2.5167349838912485,0.1756864564474672
1705061552120091600,10.055091552734375,2.228171140000224,-2.9880408287644387,0.041999943600594995
1705061552130031600,10.065031494140625,2.832245286896825,-3.238296861571073,-0.09352452526316046
1705061552139971600,10.0749716796875,3.4082156213372943,-3.310810309118032,-0.267876445171237
1705061552149911600,10.08491162109375,3.264939369302988,-3.3211142609894275,-0.43768546095266936
1705061552159851500,10.0948515625,2.850147146551311,-3.3298423418462275,-0.5441796501651406
1705061552169792800,10.104792724609375,2.7640181383669375,-3.1792706721067425,-0.43963498758524655
1705061552179732500,10.114732421875,2.811601142796874,-3.0576252371221777,-0.01964095840677619
1705061552189672700,10.124672607421875,2.75280467043519,-3.157912242257595,0.4700311487622559
1705061552199612700,10.13461279296875,2.7374025186419484,-3.288745776826143,0.8692087460137903
1705061552209552600,10.144552734375,3.021777970932424,-3.4495366427630185,1.1864343285046517
1705061552219492600,10.15449267578125,3.2754812215834854,-3.6557758391886948,1.4474372346445916
1705061552229432600,10.1644326171875,3.259375305435061,-3.762422442483902,1.5512059444159267
1705061552239373600,10.17437353515625,3.030500498831272,-3.6948107955038547,1.5334243501402436
1705061552249313500,10.1843134765625,2.745710328260064,-3.4472494086086747,1.5020086366571486
1705061552259253500,10.19425341796875,2.441171062732488,-3.0916771443277598,1.4674088863104582
1705061552269193700,10.20419384765625,2.1693216222770513,-2.6833833436846732,1.4598985106803477
1705061552279133400,10.214133544921875,2.0076018049269915,-2.357384379890561,1.546765770011395
1705061552289073700,10.22407373046875,1.9929381965413688,-2.0474755501538513,1.7005213304840028
1705061552299014700,10.2340146484375,1.9605993768639862,-1.7134440865516662,1.8448044214732944
1705061552308954600,10.24395458984375,1.988715610410273,-1.4092512963742017,1.9481204190410673
1705061552318894600,10.25389453125,2.0514147892989216,-1.1023270354062318,2.0281324056498704
1705061552328834600,10.26383447265625,1.9468781638950108,-0.7324152801275253,2.1267076384313404
1705061552338774800,10.27377490234375,1.7740251042425632,-0.40134734250605103,2.1992253237619996
1705061552348714500,10.283714599609375,1.6593568147942424,-0.1514987214565277,2.2878823891192672
1705061552358655700,10.29365576171875,1.5774676361367106,0.08093933058679104,2.3575249574050305
1705061552368595700,10.303595703125,1.469948195529729,0.34733459728956223,2.359349834744632
1705061552378535400,10.313535400390625,1.44394383957088,0.6098281803786755,2.288426725129038
1705061552388475600,10.3234755859375,1.5529861058309673,0.7695271594256162,2.169964011833817
1705061552398415600,10.33341552734375,1.5917594886004924,0.8637631939589977,2.0563325180873275
1705061552408355800,10.34335595703125,1.516024887049943,0.9738947167605161,1.951676504087448
1705061552418296600,10.353296630859376,1.3588093953818081,1.1287544390827418,1.8634021544374524
1705061552428236500,10.363236572265626,1.2138467976957559,1.2664946842998266,1.6954165546908975
1705061552438176500,10.373176513671876,1.0939613581210375,1.3026783428370952,1.467362416820228
1705061552448116500,10.383116455078126,0.9949885043241083,1.2934826444685459,1.3163833353236316
1705061552458056700,10.393056640625,0.9265642257869243,1.2295885567069054,1.1789472606848925
1705061552467996700,10.40299658203125,0.8418722646683454,1.1439601915210484,1.118799958236143
1705061552477937700,10.412937744140624,0.7867915979593991,1.04833825558722,1.1267459488045424
1705061552487877600,10.422877685546876,0.8459253394514322,0.9966577527105808,1.1979711101066322
1705061552497817600,10.432817626953126,0.9014305151827633,1.038741575202346,1.3155831248566507
1705061552507757600,10.442757568359376,0.9848739375449717,1.0727116493433713,1.492353650213778
1705061552517697500,10.452697509765626,1.078375228063017,1.1210001716941593,1.7613289965376258
1705061552527637500,10.462637451171876,1.1936229248344898,1.1432611033409834,2.0562739197678863
1705061552537578500,10.47257861328125,1.2991659508019684,1.0950099903911352,2.348965511113405
1705061552547518500,10.4825185546875,1.257255877441913,0.8759621657967567,2.6220073762238023
1705061552557458700,10.492458740234374,1.0051808125145734,0.4670452648192644,2.855113244526088
1705061552567398700,10.502398681640624,0.568866786045581,-0.010155483311414719,3.0056057115495203
1705061552577338600,10.512338623046874,0.07387728324607014,-0.5043605577349662,3.0520065204575655
1705061552587278600,10.522278564453124,-0.33922420993968844,-0.9105319593966007,2.8916327108889814
1705061552597219600,10.532219482421874,-0.4737976616889238,-1.1793629288136958,2.5916224670931696
1705061552607159600,10.54215966796875,-0.42026188633441924,-1.219889000469446,2.204857630560547
1705061552617099500,10.552099609375,-0.3160853264145553,-1.1647954742789268,1.8144018305554985
1705061552627039700,10.562039794921875,-0.16790259763821958,-1.2735644765555858,1.4036235196202993
1705061552636979500,10.5719794921875,-0.07636018610298632,-1.5244477013498543,0.9694060270391404
1705061552646919400,10.58191943359375,-0.05907061312794685,-1.8845126008749007,0.5829604855887591
1705061552656859600,10.591859619140624,0.06863572933077812,-2.3020786722540856,0.21218992152363061
1705061552666800400,10.60180029296875,-0.02115019392594695,-2.4943863739609715,-0.17177520128786564
1705061552676740600,10.61174072265625,-0.11732990987300872,-2.263529453629255,-0.53887482175529
1705061552686680600,10.6216806640625,-0.134792355196923,-1.5996224770605563,-0.8619108440905809
1705061552696620800,10.631620849609375,0.4007008612960577,-1.0152987402945757,-1.0848688278660177
1705061552706560500,10.641560546875,0.5081330620110035,-0.36927579546272754,-1.0169915156871079
1705061552716500500,10.65150048828125,0.7008074050731956,0.013619944551587104,-0.7564525737971067
1705061552726441700,10.661441650390625,0.678683105418086,0.13670271886289118,-0.31777854019850493
1705061552736381400,10.67138134765625,0.09654285017102957,-0.17880699962079524,0.30977760457247494
1705061552746321700,10.68132177734375,-0.4203790829733014,-0.8945248274475336,0.7881760380551218
1705061552756261600,10.69126171875,-0.5013973240152001,-1.764541821104288,0.8471250706300139
1705061552766201600,10.70120166015625,-0.7517267143189906,-2.633666834357381,0.7732567013427615
1705061552776141600,10.7111416015625,-0.5490329354152083,-3.179519678431749,0.2751391296505928
1705061552786082600,10.72108251953125,0.4369342041939497,-3.30119083237946,-0.5593573455527424
1705061552796022500,10.7310224609375,1.74702545363605,-2.9519267283320425,-1.3953928668916225
1705061552805962500,10.74096240234375,2.626247498011589,-2.286668921676278,-1.902656744852662
1705061552815902700,10.75090283203125,2.6740727867648,-1.3548404917508363,-1.9599284918650983
1705061552825842700,10.7608427734375,2.2643740877598524,-0.2109416750282049,-1.3279986620545388
1705061552835782400,10.770782470703125,1.756207123479247,0.6328028132528066,-0.19115297871381043
1705061552845723600,10.7807236328125,1.2878320713609457,1.1414520080924033,0.7451032045260071
1705061552855663600,10.79066357421875,0.79503335660398,1.3363304370701312,1.4558128488019109
1705061552865603600,10.800603515625,0.45849633992165323,1.2324123819559811,1.9500620546281338
1705061552875543600,10.81054345703125,0.3392085739791393,1.0203957711726426,2.165180723080039
1705061552885483500,10.8204833984375,0.2732633989065885,0.744508453503251,2.150770066542178
1705061552895423700,10.830423828125,0.3398147231787443,0.45395665066540236,2.0164700249068437
1705061552905364500,10.840364501953125,0.5957540623188018,0.15811434020400048,1.7677222047060728
1705061552915304700,10.8503046875,0.6856561593011021,-0.04346621676087379,1.574709131208807
1705061552925244700,10.86024462890625,1.2647209526255727,0.038350481182336804,1.0162922813765705
1705061552935184400,10.870184326171875,1.4984537206545472,0.018284429231286047,0.6070347502678632
1705061552945124600,10.88012451171875,1.4162857250556349,-0.050720717933773994,0.4158849864244461
1705061552955064600,10.890064697265625,1.611943321712315,0.09706278239190579,-0.08189948085583745
1705061552965005600,10.900005615234376,1.7642480988547204,0.3877040170788765,-0.5694657017868012
1705061552974945500,10.909945556640626,1.6735627425402402,0.5827075337409973,-0.89005557307899
1705061552984885800,10.9198857421875,1.6701716387972234,0.8090782485693693,-1.3664762767478822
1705061552994825700,10.92982568359375,1.4503808868810533,0.8765086937636136,-1.6359022894486783
1705061553004765400,10.939765380859376,1.0544941478684544,0.824352974590659,-1.6859611824728546
1705061553014705700,10.94970556640625,0.7772615530699492,0.5962421380966901,-1.7190378149054943
1705061553024646400,10.959646484375,0.6204638484224677,0.45677696878314017,-2.0451140817195177
1705061553034586600,10.969586669921876,0.4775020691648125,0.1215653554856777,-2.220807479364425
1705061553044526600,10.979526611328126,0.2879854594811797,-0.2256909158706665,-2.4436641947224733
1705061553054466600,10.989466552734376,0.28995763633698224,-0.3892711202651262,-2.6727877153903243
1705061553064406500,10.999406494140626,0.32706220911145206,-0.38691023635268207,-2.9972543550506234
1705061553074346500,11.009346435546876,0.3656152271285653,-0.33005788379609585,-3.2653882821142672
1705061553084287700,11.019287841796874,0.4382993550673127,-0.28245500562191006,-3.438918510375917
1705061553094227500,11.0292275390625,0.42951720593571663,-0.12684943336844443,-3.5554350580394267
1705061553104167700,11.039167724609374,0.2700596344292164,0.21356500926911828,-3.608816519615054
1705061553114107600,11.049107666015624,0.2178545231565833,0.7213222237050533,-3.627529695652425
1705061553124047600,11.059047607421874,0.09442074345052241,1.3287415893763304,-3.4739679041862486
1705061553133987600,11.068987548828124,-0.14487725749015806,1.8450667256712912,-3.152242964449525
1705061553143928600,11.078928466796874,-0.46742958796173334,2.046748989444971,-2.641561386999488
1705061553153868800,11.088868896484374,-0.5477291593402623,2.117405995470285,-2.14269138950482
1705061553163808500,11.09880859375,-0.10789601883441209,2.1833996858596803,-1.8156399940483272
1705061553173748500,11.10874853515625,0.6759849523752928,2.176706325700879,-1.401458742801845
1705061553183688700,11.118688720703124,1.5179428495004772,2.1461434296548365,-0.963111456939578
1705061553193628700,11.128628662109374,2.0866013996228574,2.144993675097823,-0.6043044485211372
1705061553203569700,11.138569580078125,2.279415881808102,2.036066267389059,-0.23306115237772462
1705061553213509600,11.148509521484375,1.9815362203001974,1.8133616738528011,0.44242593347802756
1705061553223448600,11.158448486328124,1.6794208209186792,1.6999229261994362,0.9221503548674285
1705061553233388500,11.168388427734374,1.436589969676733,1.4721622183173895,1.4937231850013135
1705061553243328500,11.17832861328125,1.2896372210867701,1.2117635616809128,2.1757304664060473
1705061553253268500,11.1882685546875,1.1152977222688496,0.9848007261782884,2.7625293611139057
1705061553263209500,11.19820947265625,1.0077695138335228,0.7758224601775408,3.19039061653614
1705061553273149400,11.2081494140625,0.42560733901560305,0.4417261146456003,3.5546427386179564
1705061553283089400,11.21808935546875,-0.5504261433392763,0.17064941212832926,4.063969102066755
1705061553293029600,11.228029541015625,-1.6070079111367463,0.16409283009171485,4.564048036959767
1705061553302969300,11.23796923828125,-2.3368360973805187,0.27166940771341325,5.191669648182391
1705061553312909600,11.24790966796875,-2.6048954979032275,0.4656149397552013,5.397335428634285
1705061553322850600,11.2578505859375,-2.648808289387822,0.45364802310764785,5.667807150995731
1705061553332790500,11.26779052734375,-2.2180717707902193,0.3662362816363573,5.447933396971226
1705061553342730500,11.27773046875,-1.4720815542966126,0.1508195070207119,4.857286302402615
1705061553352670500,11.28767041015625,-0.6917026729237288,-0.44333238079845905,4.197829583241045
1705061553362610700,11.297610595703125,0.23320319119691849,-1.5740619193464516,3.6101807937055823
1705061553372550400,11.30755029296875,1.0269774876505136,-3.039771600523591,3.096836719048023
1705061553382491600,11.31749169921875,0.866718536633253,-4.654313998818397,2.7358547046780584
1705061553392431600,11.327431640625,-0.616533157910034,-6.338668184486031,2.1421138818778096
1705061553402371300,11.337371337890625,-4.304499275150895,-7.871650489947199,1.293603348238766
1705061553412311600,11.3473115234375,-9.205418383052944,-8.63219705505967,-0.2521247492879629
1705061553422251500,11.35725146484375,-7.2170227983772754,-7.333888013347983,-2.5189707801192998
1705061553432191500,11.36719140625,2.0328994739212094,-4.946732180050015,-3.529152323530614
1705061553442132500,11.377132568359375,7.656366401800513,-3.380356723552942,-3.021708705088496
1705061553452072700,11.38707275390625,7.7392989520311355,-3.0376614765018224,-2.6778029132038355
1705061553462012400,11.397012451171875,6.337473421743511,-2.4617174455463884,-2.617604757350683
1705061553471952400,11.406952392578125,5.512693746173381,-1.8114140469163655,-2.504341074003279
1705061553481892600,11.416892578125,5.576827487909793,-1.4255623797059058,-2.5172663142889737
1705061553491832600,11.42683251953125,6.194943604162335,-1.398676126345992,-2.3881878066942095
1705061553501773600,11.436773681640625,7.131720596405863,-1.5676771867454051,-2.2031585715577005
1705061553511713500,11.446713623046875,7.765048310315609,-1.5435691659271715,-2.1880577407985924
1705061553521653500,11.456653564453125,8.053678205180168,-1.4287141217350958,-2.485327453714609
1705061553531593500,11.466593505859375,7.980436443358659,-1.2241869899243116,-2.856398315900564
1705061553541533400,11.476533447265625,7.650520598381758,-1.0851017598390578,-3.115735188524425
1705061553551473700,11.4864736328125,7.1067059821367256,-0.8302788575083017,-3.380115900534391
1705061553561414400,11.496414306640625,6.3875137561976905,-0.5054261411398648,-3.6521804450452326
1705061553571354600,11.506354736328126,5.573667562574148,-0.1803378624498844,-3.8421687638938424
1705061553581294600,11.516294677734376,4.62821743453145,0.2077308962881565,-3.9688752816602584
1705061553591234600,11.526234619140626,3.018151889389753,0.6620750849664211,-4.203971446996927
1705061553601174500,11.536174560546876,-1.151334373550862,1.2937182067900896,-4.507510449440777
1705061553611114500,11.546114501953125,-6.046407239642739,2.015612677425146,-4.256069590763747
1705061553621055500,11.556055419921876,-6.0323962499469514,2.0300076980024575,-3.015218758547306
1705061553630995500,11.565995361328126,-2.8501328257650136,1.5784452489972114,-2.3767259169593453
1705061553640935400,11.575935302734376,0.1623771122150123,0.8372247311234474,-2.339163371284306
1705061553650875600,11.585875732421876,1.5486761336773633,0.20399112523794172,-3.0049276661574837
1705061553660815400,11.5958154296875,1.4310158228062093,-0.035117490610480306,-3.6390336709633466
1705061553670755600,11.605755615234376,0.8818069463022052,-0.22974808230698107,-3.9372523551672693
1705061553680696600,11.615696533203124,0.7003438792146742,-0.3937684316843748,-4.112551931189
1705061553690636300,11.62563623046875,0.8024217132896184,-0.6571598403960466,-3.787673495857417
1705061553700576500,11.635576416015626,1.2190496270358562,-0.7013736606538296,-3.3060423640638588
1705061553710516500,11.6455166015625,1.5200024123787879,-0.5097334829449653,-2.94640153516978
1705061553720456700,11.655456787109374,1.1290817713409662,-0.10434592513740062,-2.6815377158179876
1705061553730396400,11.665396484375,0.23500936383605,0.4206026625961065,-2.5792519380807875
1705061553740337700,11.675337646484374,-0.6360405530650168,0.8149515245169401,-2.3243977638289333
1705061553750277600,11.685277587890624,-1.2547960631996393,0.9059300185590982,-2.069789819423109
1705061553760217300,11.69521728515625,-1.6098194614261387,0.6721691934794187,-1.8843436740487813
1705061553770157600,11.705157470703124,-1.7602087603360415,0.1394815359264612,-1.8656103320062158
1705061553780097500,11.71509765625,-1.7746084570884704,-0.4385147513836622,-2.0488180508039893
1705061553790038500,11.72503857421875,-1.818990619650483,-0.6715694740206003,-2.3510825032673774
1705061553799978500,11.734978515625,-1.8717057262718677,-0.7115554474502801,-2.5246035253092645
1705061553809918500,11.74491845703125,-1.9260522334873675,-0.826949420824647,-2.5873925744384527
1705061553819858400,11.7548583984375,-1.8766086958825587,-0.7633522701829671,-2.5576398257315156
1705061553829798400,11.76479833984375,-1.8109101890474557,-0.6610919191479683,-2.457020519901812
1705061553839738600,11.774738525390624,-1.5315437970906496,-0.3158464030921459,-2.4251187764674422
1705061553849678600,11.7846787109375,-1.066050437888503,0.0833370393782854,-2.3422324034661055
1705061553859619600,11.79461962890625,-0.7573189083028584,0.33656945764720436,-2.0792080745011567
1705061553869559600,11.8045595703125,-0.6802724935013801,0.5307131426095962,-1.7273524926558137
1705061553879499500,11.81449951171875,-0.6870248173058032,0.6239443840146064,-1.3433971605859696
1705061553889439500,11.824439453125,-0.7101549330025911,0.6040168637514114,-0.9438078407283872
1705061553899379500,11.83437939453125,-0.9293284298032521,0.6027595571666956,-0.6270026025414467
1705061553909320700,11.84432080078125,-1.3967436969786882,0.746112381568551,-0.4057162783052772
1705061553919260400,11.854260498046875,-2.019047912570834,0.9210147749662398,-0.27200368116907775
1705061553929200400,11.864200439453125,-2.5905109987199304,1.0369932702302933,-0.19051044302657247
1705061553939140600,11.874140625,-2.3335855711519717,1.0200205081194638,-0.06552665739953517
1705061553949080600,11.88408056640625,-1.5907459276437759,1.1017255623817443,0.022663082706928253
1705061553959020500,11.8940205078125,-1.1455506025176494,1.5776637432307004,-0.027683102826029062
1705061553968961500,11.90396142578125,-0.5425345133066177,2.093273424732685,-0.06366992361694573
1705061553978901500,11.913901611328125,0.09475092525295913,2.3040964418172836,-0.02289543015807867
1705061553988841500,11.923841552734375,1.1981349223662168,1.9317583361744879,-0.00718260498046875
1705061553998781400,11.933781494140625,2.6593378667086363,1.1120184083372353,-0.00723331225439906
1705061554008721700,11.9437216796875,3.518162435221672,0.4095838404536247,-0.07974968241080642
1705061554018661400,11.953661376953125,3.848851602658629,-0.051074938198924065,-0.25199410864561794
1705061554028602600,11.9636025390625,3.999714364299178,-0.45576223878264427,-0.38105478832274675
1705061554038542600,11.97354248046875,3.997792456325888,-0.7475666720300912,-0.5069009629327803
1705061554048482300,11.983482421875,3.998611371493339,-1.0790578034996985,-0.5711991014506668
1705061554058422500,11.993422607421875,4.034303447121381,-1.414674490466714,-0.5907514317259193
1705061554068362500,12.003362548828125,4.1069443204402925,-1.7606950825482606,-0.5693490166045725
1705061554078302700,12.013302734375,4.083696131321788,-1.9936592042922971,-0.5979916851777582
1705061554088243500,12.023243408203125,3.9747108559459448,-1.9405594822674987,-0.6166452399823814
1705061554098183700,12.03318359375,3.825170282819867,-1.7419763535529373,-0.6797992499664426
1705061554108123600,12.04312353515625,3.6180750540867446,-1.6654478251457214,-0.6784539728373289
1705061554118063400,12.0530634765625,3.37890535570085,-1.8138368901491164,-0.7093107372634112
1705061554128003600,12.063003662109375,3.20974939700067,-2.114016353031993,-0.7186123802244663
1705061554137943600,12.072943603515625,3.1260470314413307,-2.4842034181207415,-0.6561218756504357
1705061554147884500,12.082884521484376,3.141001439467072,-2.8944255564779042,-0.5719987639283761
1705061554157824500,12.092824462890626,3.3202895006030797,-3.1771488576471802,-0.4588198362549767
1705061554167764500,12.102764404296876,3.5741268990278243,-3.2171126192450523,-0.368470872288011
1705061554177704400,12.112704345703126,3.7632699992239473,-2.8777649290561675,-0.3300593816334382
1705061554187644400,12.12264453125,3.8362300214946266,-2.298232518219948,-0.3786861960278824
1705061554197584600,12.132584716796876,3.7622827417522666,-1.6788702012985943,-0.4279599665563553
1705061554207525400,12.142525390625,3.680992113509774,-1.163157643944025,-0.4387287229279056
1705061554217465300,12.15246533203125,3.5680151381492613,-0.7970891200900078,-0.4208955811280757
1705061554227405600,12.162405517578126,3.1033482928991316,-0.5367699584305287,-0.3069813249174505
1705061554237345500,12.172345458984376,1.8021518591828642,-0.442784099265933,0.07362371034380048
1705061554247285500,12.182285400390626,-0.5118265097014606,-0.544646975415945,0.6474776736848056
1705061554257225500,12.1922255859375,-2.856944259345531,-0.6127963825345039,1.2671731680832803
1705061554267166700,12.202166748046874,-2.691086757668853,-0.5574351453185081,1.5283404710046946
1705061554277106400,12.2121064453125,-0.46061895809881387,-0.3953150766044855,1.0962953540265559
1705061554287046400,12.22204638671875,1.3067207500956952,0.09871814838349818,0.191761064142175
1705061554296986600,12.231986572265624,1.6122580867499112,0.6532488044321537,-0.25212423783130944
1705061554306926600,12.241926513671874,1.3165138298355041,1.0449924522906542,-0.3001950623108074
1705061554316866300,12.2518662109375,0.97758012727499,1.2838982390433549,-0.14160649219118057
1705061554326807600,12.2618076171875,0.6975479648858308,1.5436416466414928,-0.004571618764474988
1705061554336747500,12.27174755859375,0.5499041652917862,1.6571113739550112,0.0983267013804987
1705061554346687500,12.2816875,0.45032392018623646,1.71681268620193,0.17423176412712782
1705061554356627700,12.291627685546874,0.19125790039300916,1.7380629795014857,0.24400033341273664
1705061554366568000,12.30156787109375,-0.2503062286239117,1.5478361757218837,0.35016068756096064
1705061554376508700,12.3115087890625,-0.6768284174621105,1.2529641715973614,0.34279709999039765
1705061554386449000,12.321448974609375,-0.9284493088811635,0.8788415206253528,0.3347091802006587
1705061554396388900,12.331388916015625,-1.0425754542768,0.5528069009959697,0.26236865980150176
1705061554406328600,12.34132861328125,-1.1458072806924582,0.2649193489313125,0.1307122280101292
1705061554416268800,12.351268798828125,-1.0419978735845536,0.04482055397927761,-0.017687559316679834
1705061554426208800,12.361208740234375,-0.8994745588093995,0.019350597158074377,-0.21199185993457212
1705061554436149800,12.371149658203125,-0.9003589404284954,0.043403088396787644,-0.3638639264818281
1705061554446089700,12.38108984375,-0.8587736420433968,0.04778758709132671,-0.49163376263082026
1705061554456029700,12.39102978515625,-0.7702799505542963,0.04849602762162685,-0.67715816087313
1705061554465970000,12.400969970703125,-0.8542536073356867,-0.12437339864373206,-0.8020777221575379
1705061554475909600,12.41090966796875,-1.1178244642674922,-0.3397352282017469,-0.8454556030478328
1705061554485849900,12.420849853515625,-1.3011667692303657,-0.438157023987174,-1.0266099695123732
1705061554495790600,12.43079052734375,-1.2893594270586968,-0.454473952537775,-1.3426134628623723
1705061554505730800,12.440730712890625,-1.1845248416215182,-0.46017128739655017,-1.6325968181625008
1705061554515670800,12.4506708984375,-1.111262037011981,-0.4696557395786047,-1.7561602155975997
1705061554525610800,12.46061083984375,-0.9629980596929788,-0.37576165035068987,-1.940253485058248
1705061554535550700,12.47055078125,-0.6249888515662402,-0.12551146276295183,-2.202512382608652
1705061554545490700,12.48049072265625,-0.3657703446250409,0.245035667809844,-2.62901491689831
1705061554555432000,12.490431884765625,-0.21999007388055322,0.38206747249662876,-2.84298733792454
1705061554565371600,12.50037158203125,0.12578501900732517,0.11924246549606322,-3.181763657966256
1705061554575311600,12.5103115234375,0.6916530616283416,-0.16097499033212662,-3.5515035638093946
1705061554585251800,12.520251953125,1.6767425416201351,-0.505439000621438,-4.226304859358072
1705061554595191800,12.53019189453125,2.9257079989701507,-0.7828782239079475,-5.018671042579412
