time,seconds_elapsed,z,y,x
1704913142164757800,0.0137578125,-0.0891876220703125,0.9893341064453125,-0.0867919921875
1704913142174697000,0.023697021484375,-0.1053619384765625,0.9927520751953125,-0.0761260986328125
1704913142184636000,0.033635986328125,-0.1209869384765625,0.9979400634765625,-0.068267822265625
1704913142194576000,0.043575927734375,-0.13763427734375,1.0003814697265625,-0.0628204345703125
1704913142204514800,0.053514892578125,-0.1483001708984375,0.9962158203125,-0.0622100830078125
1704913142214454000,0.0634541015625,-0.1566925048828125,0.9857635498046875,-0.06298828125
1704913142224393000,0.07339306640625,-0.163360595703125,0.9727020263671875,-0.0675811767578125
1704913142234332700,0.083332763671875,-0.1712493896484375,0.9607086181640625,-0.07269287109375
1704913142244271900,0.09327197265625,-0.17376708984375,0.9550628662109375,-0.075592041015625
1704913142254211000,0.103211181640625,-0.1688690185546875,0.9546051025390625,-0.0793914794921875
1704913142264150000,0.11314990234375,-0.1614532470703125,0.96087646484375,-0.0847930908203125
1704913142274089700,0.12308984375,-0.15057373046875,0.9667510986328125,-0.089935302734375
1704913142284028700,0.133028564453125,-0.1387176513671875,0.9731903076171875,-0.0946502685546875
1704913142293967600,0.142967529296875,-0.12921142578125,0.9775848388671875,-0.1007232666015625
1704913142303906800,0.15290673828125,-0.120361328125,0.98370361328125,-0.102386474609375
1704913142313846800,0.1628466796875,-0.11212158203125,0.9927978515625,-0.1015472412109375
1704913142323785700,0.17278564453125,-0.10540771484375,0.998748779296875,-0.09844970703125
1704913142333724700,0.182724609375,-0.0992431640625,1.0062255859375,-0.09490966796875
1704913142343663900,0.192663818359375,-0.09613037109375,1.0096588134765625,-0.089599609375
1704913142353603800,0.202603759765625,-0.099090576171875,1.0035247802734375,-0.083251953125
1704913142363542800,0.212542724609375,-0.11090087890625,0.995819091796875,-0.0755157470703125
1704913142373481700,0.222481689453125,-0.1277008056640625,0.98480224609375,-0.0673675537109375
1704913142383421000,0.2324208984375,-0.1404571533203125,0.978485107421875,-0.059417724609375
1704913142393361000,0.24236083984375,-0.1515045166015625,0.9737396240234375,-0.05487060546875
1704913142403299800,0.2522998046875,-0.1609649658203125,0.969268798828125,-0.0522918701171875
1704913142413238800,0.26223876953125,-0.1657257080078125,0.97027587890625,-0.0528717041015625
1704913142423178000,0.272177978515625,-0.1703643798828125,0.971221923828125,-0.0546417236328125
1704913142433118000,0.282117919921875,-0.1719818115234375,0.975738525390625,-0.0576019287109375
1704913142443057000,0.292056884765625,-0.1720733642578125,0.979095458984375,-0.0583953857421875
1704913142452995800,0.301995849609375,-0.169525146484375,0.9796905517578125,-0.0573272705078125
1704913142462934800,0.311934814453125,-0.166107177734375,0.9836273193359375,-0.0565032958984375
1704913142472874800,0.321874755859375,-0.167022705078125,0.9885406494140625,-0.05328369140625
1704913142482814000,0.33181396484375,-0.16656494140625,0.9892425537109375,-0.0529937744140625
1704913142492753000,0.3417529296875,-0.1625823974609375,0.9908599853515625,-0.0530242919921875
1704913142502691800,0.35169189453125,-0.1557769775390625,0.9926910400390625,-0.055694580078125
1704913142512631800,0.3616318359375,-0.1483001708984375,0.993255615234375,-0.0547027587890625
1704913142522570800,0.37157080078125,-0.14239501953125,0.9910888671875,-0.0536651611328125
1704913142532509700,0.381509765625,-0.1387786865234375,0.9914703369140625,-0.05059814453125
1704913142542450000,0.391449951171875,-0.1369781494140625,0.9933624267578125,-0.046600341796875
1704913142552388900,0.401388916015625,-0.1374969482421875,0.9925537109375,-0.0394287109375
1704913142562327800,0.411327880859375,-0.14288330078125,0.9884185791015625,-0.0296173095703125
1704913142572266800,0.421266845703125,-0.1550140380859375,0.9886627197265625,-0.0186004638671875
1704913142582206700,0.431206787109375,-0.16705322265625,0.9882965087890625,-0.008514404296875
1704913142592146000,0.44114599609375,-0.1744384765625,0.9844512939453125,-0.0008544921875
1704913142602084900,0.4510849609375,-0.1816253662109375,0.9831085205078125,0.004425048828125
1704913142612023800,0.46102392578125,-0.18682861328125,0.982635498046875,0.00714111328125
1704913142621963800,0.4709638671875,-0.1820831298828125,0.9818115234375,0.0041046142578125
1704913142631903000,0.480903076171875,-0.1746063232421875,0.976348876953125,-0.0025634765625
1704913142641842000,0.490842041015625,-0.1722564697265625,0.96820068359375,-0.0105133056640625
1704913142651780900,0.50078076171875,-0.1724853515625,0.966583251953125,-0.0205841064453125
1704913142661720800,0.510720947265625,-0.1677703857421875,0.9691619873046875,-0.0263824462890625
1704913142671660000,0.520659912109375,-0.1574554443359375,0.97393798828125,-0.031158447265625
1704913142681599000,0.530598876953125,-0.151611328125,0.973114013671875,-0.0345458984375
1704913142691538000,0.540537841796875,-0.1506805419921875,0.976837158203125,-0.0330657958984375
1704913142701478000,0.550477783203125,-0.15399169921875,0.983612060546875,-0.0323333740234375
1704913142711416800,0.560416748046875,-0.1554718017578125,0.9878692626953125,-0.0314788818359375
1704913142721356000,0.57035595703125,-0.15045166015625,0.98828125,-0.0323944091796875
1704913142731295000,0.580294921875,-0.1465301513671875,0.9918060302734375,-0.037994384765625
1704913142741234700,0.590234619140625,-0.14349365234375,0.9932708740234375,-0.0448760986328125
1704913142751173600,0.600173583984375,-0.1425323486328125,0.996307373046875,-0.05218505859375
1704913142761112800,0.61011279296875,-0.1443328857421875,0.997406005859375,-0.0609588623046875
1704913142771051800,0.6200517578125,-0.147552490234375,0.9918670654296875,-0.0624847412109375
1704913142780991700,0.62999169921875,-0.158447265625,0.9835205078125,-0.0653076171875
1704913142790930700,0.6399306640625,-0.16796875,0.980865478515625,-0.0661468505859375
1704913142800870000,0.649869873046875,-0.1759490966796875,0.972686767578125,-0.0655059814453125
1704913142810808800,0.659808837890625,-0.1858062744140625,0.9708251953125,-0.0666961669921875
1704913142820748800,0.669748779296875,-0.1966705322265625,0.9673614501953125,-0.0679473876953125
1704913142830687700,0.679687744140625,-0.2044219970703125,0.972412109375,-0.0699615478515625
1704913142840627000,0.689626953125,-0.209930419921875,0.9821929931640625,-0.07403564453125
1704913142850566000,0.69956591796875,-0.213409423828125,0.993743896484375,-0.0772705078125
1704913142860505900,0.709505859375,-0.21038818359375,1.0013275146484375,-0.0799713134765625
1704913142870444800,0.71944482421875,-0.203857421875,0.999481201171875,-0.081817626953125
1704913142880383700,0.7293837890625,-0.1944427490234375,0.9948272705078125,-0.0834197998046875
1704913142890324000,0.739323974609375,-0.1938323974609375,0.9901885986328125,-0.0838470458984375
1704913142900263000,0.749262939453125,-0.1950531005859375,0.983001708984375,-0.0873870849609375
1704913142910201900,0.759201904296875,-0.1930999755859375,0.9822845458984375,-0.0894927978515625
1704913142920140800,0.769140869140625,-0.185516357421875,0.9790191650390625,-0.0890655517578125
1704913142930080800,0.779080810546875,-0.1738128662109375,0.97454833984375,-0.0865631103515625
1704913142940020000,0.78902001953125,-0.158416748046875,0.9652557373046875,-0.0840911865234375
1704913142949959000,0.798958984375,-0.149993896484375,0.9578094482421875,-0.0822601318359375
1704913142959897900,0.80889794921875,-0.14605712890625,0.9559173583984375,-0.0771026611328125
1704913142969837800,0.818837890625,-0.132110595703125,0.9591217041015625,-0.069061279296875
1704913142979776800,0.82877685546875,-0.110565185546875,0.969451904296875,-0.05694580078125
1704913142989715700,0.8387158203125,-0.088958740234375,0.983306884765625,-0.0394744873046875
1704913142999654700,0.848654541015625,-0.078338623046875,0.9924468994140625,-0.019989013671875
1704913143009595000,0.858594970703125,-0.0709991455078125,1.003387451171875,-0.00054931640625
1704913143019533800,0.868533935546875,-0.069000244140625,1.0119476318359375,0.0178985595703125
1704913143029472800,0.87847265625,-0.067047119140625,1.013671875,0.0330657958984375
1704913143039411700,0.88841162109375,-0.066619873046875,1.00970458984375,0.0436859130859375
1704913143049352000,0.89835205078125,-0.0690460205078125,1.0101776123046875,0.0517120361328125
1704913143059291000,0.908290771484375,-0.0738372802734375,1.0114288330078125,0.0550079345703125
1704913143069229800,0.918229736328125,-0.0856781005859375,1.0125732421875,0.0524444580078125
1704913143079168800,0.928168701171875,-0.10089111328125,1.0133056640625,0.04779052734375
1704913143089109000,0.93810888671875,-0.09906005859375,1.0141754150390625,0.046356201171875
1704913143099048000,0.9480478515625,-0.0839996337890625,1.01177978515625,0.045501708984375
1704913143108987000,0.95798681640625,-0.068084716796875,1.0118255615234375,0.0437774658203125
1704913143118925800,0.96792578125,-0.0675811767578125,1.0095367431640625,0.0379791259765625
1704913143128866000,0.977865966796875,-0.0767669677734375,0.996307373046875,0.0242462158203125
1704913143138805000,0.987804931640625,-0.09515380859375,0.9813690185546875,0.0004119873046875
1704913143148744000,0.997743896484375,-0.1108856201171875,0.9673614501953125,-0.0320892333984375
1704913143158684000,1.007683837890625,-0.114410400390625,0.958953857421875,-0.066619873046875
1704913143168622800,1.017622802734375,-0.1011199951171875,0.957183837890625,-0.09503173828125
1704913143178562000,1.02756201171875,-0.0734405517578125,0.9730072021484375,-0.1143951416015625
1704913143188501000,1.0375009765625,-0.04974365234375,0.994476318359375,-0.120452880859375
1704913143198441000,1.04744091796875,-0.0389862060546875,1.01593017578125,-0.1149139404296875
1704913143208380000,1.0573798828125,-0.039337158203125,1.0243988037109375,-0.0952911376953125
1704913143218318800,1.06731884765625,-0.0512847900390625,1.0169219970703125,-0.0644378662109375
1704913143228257800,1.0772578125,-0.0603485107421875,0.9968719482421875,-0.030609130859375
1704913143238197800,1.08719775390625,-0.0712127685546875,0.9890594482421875,-0.00335693359375
1704913143248137000,1.097136962890625,-0.0885467529296875,0.991241455078125,0.016265869140625
1704913143258076000,1.107075927734375,-0.1092071533203125,0.98968505859375,0.0272216796875
1704913143268014800,1.117014892578125,-0.1320953369140625,0.9871826171875,0.0339508056640625
1704913143277954800,1.126954833984375,-0.15362548828125,0.989776611328125,0.04010009765625
1704913143287894000,1.13689404296875,-0.1617431640625,0.9928131103515625,0.045440673828125
1704913143297833000,1.1468330078125,-0.1587371826171875,0.99859619140625,0.0521392822265625
1704913143307772000,1.15677197265625,-0.1461029052734375,1.007232666015625,0.0621490478515625
1704913143317712000,1.1667119140625,-0.1263580322265625,1.0215301513671875,0.0680389404296875
1704913143327651000,1.176651123046875,-0.1008453369140625,1.0323944091796875,0.07177734375
1704913143337590000,1.186590087890625,-0.0866851806640625,1.033203125,0.0717010498046875
1704913143347529000,1.196529052734375,-0.0841522216796875,1.0264892578125,0.0673370361328125
1704913143357469000,1.206468994140625,-0.08502197265625,1.0211181640625,0.0602264404296875
1704913143367408000,1.216408203125,-0.084381103515625,1.0167999267578125,0.0540313720703125
1704913143377347000,1.22634716796875,-0.0904693603515625,1.009796142578125,0.0490570068359375
1704913143387286000,1.2362861328125,-0.1057891845703125,1.000335693359375,0.0406951904296875
1704913143397226000,1.24622607421875,-0.1203765869140625,0.9899444580078125,0.0272979736328125
1704913143407165000,1.2561650390625,-0.133514404296875,0.98388671875,0.0059814453125
1704913143417104100,1.266104248046875,-0.149566650390625,0.9830474853515625,-0.021453857421875
1704913143427043000,1.27604296875,-0.162628173828125,0.9867095947265625,-0.0491180419921875
1704913143436982800,1.285982666015625,-0.1697235107421875,0.9874725341796875,-0.0654449462890625
1704913143446921700,1.295921630859375,-0.1749267578125,0.982391357421875,-0.0731201171875
1704913143456861000,1.30586083984375,-0.1799774169921875,0.9736175537109375,-0.07867431640625
1704913143466799900,1.3157998046875,-0.185089111328125,0.9667205810546875,-0.0901947021484375
1704913143476739800,1.32573974609375,-0.18609619140625,0.9605712890625,-0.0981597900390625
1704913143486678800,1.3356787109375,-0.185028076171875,0.95892333984375,-0.1067657470703125
1704913143496618000,1.345617919921875,-0.1787261962890625,0.958038330078125,-0.11773681640625
1704913143506558000,1.355557861328125,-0.1651763916015625,0.9526214599609375,-0.1336822509765625
1704913143516497000,1.365496826171875,-0.1520843505859375,0.9485931396484375,-0.1537933349609375
1704913143526435800,1.375435791015625,-0.1418304443359375,0.9453125,-0.1753387451171875
1704913143536374800,1.385374755859375,-0.124786376953125,0.9402618408203125,-0.194915771484375
1704913143546315000,1.39531494140625,-0.112274169921875,0.9329833984375,-0.20745849609375
1704913143556254000,1.40525390625,-0.1082611083984375,0.9373779296875,-0.2114105224609375
1704913143566193000,1.41519287109375,-0.1032257080078125,0.9484710693359375,-0.205596923828125
1704913143576131800,1.4251318359375,-0.10382080078125,0.9652557373046875,-0.1873779296875
1704913143586072000,1.435072021484375,-0.1128997802734375,0.9867401123046875,-0.1657867431640625
1704913143596011000,1.445010986328125,-0.126251220703125,1.001678466796875,-0.13885498046875
1704913143605950000,1.454949951171875,-0.1437835693359375,1.01092529296875,-0.1074676513671875
1704913143615889000,1.464888916015625,-0.1629486083984375,1.0141143798828125,-0.0789794921875
1704913143625828900,1.474828857421875,-0.1839599609375,1.009307861328125,-0.05670166015625
1704913143635768000,1.48476806640625,-0.2040863037109375,0.995635986328125,-0.0393218994140625
1704913143645707000,1.49470703125,-0.2177734375,0.9721527099609375,-0.022705078125
1704913143655646000,1.50464599609375,-0.21673583984375,0.941986083984375,-0.014984130859375
1704913143665586000,1.5145859375,-0.203033447265625,0.916259765625,-0.0157623291015625
1704913143675524900,1.52452490234375,-0.180206298828125,0.9063873291015625,-0.0256805419921875
1704913143685463800,1.5344638671875,-0.146575927734375,0.909210205078125,-0.0521087646484375
1704913143695402800,1.54440283203125,-0.106964111328125,0.9326171875,-0.1023712158203125
1704913143705343000,1.554343017578125,-0.07586669921875,0.973480224609375,-0.1693572998046875
1704913143715282000,1.564281982421875,-0.0438690185546875,1.0181121826171875,-0.23297119140625
1704913143725220900,1.574220947265625,0.008392333984375,1.0647125244140625,-0.2882232666015625
1704913143735159800,1.584159912109375,0.1173858642578125,1.129669189453125,-0.333770751953125
1704913143745100000,1.59410009765625,0.1731414794921875,1.178192138671875,-0.363555908203125
1704913143755039000,1.6040390625,0.1969451904296875,1.1894378662109375,-0.367401123046875
1704913143764978000,1.61397802734375,0.220245361328125,1.2026519775390625,-0.34197998046875
1704913143774916900,1.623916748046875,0.2214508056640625,1.2272186279296875,-0.298980712890625
1704913143784857000,1.633857177734375,0.2042083740234375,1.242340087890625,-0.2494659423828125
1704913143794796000,1.643796142578125,0.1600341796875,1.2361602783203125,-0.213043212890625
1704913143804735000,1.65373486328125,0.1070556640625,1.2100677490234375,-0.1869964599609375
1704913143814674000,1.663673828125,0.0556640625,1.170013427734375,-0.1675872802734375
1704913143824614000,1.67361376953125,0.010345458984375,1.1193389892578125,-0.1581268310546875
1704913143834553000,1.683552978515625,-0.01934814453125,1.0689544677734375,-0.153228759765625
1704913143844492000,1.693491943359375,-0.0378875732421875,1.0229949951171875,-0.15380859375
1704913143854431000,1.703430908203125,-0.044281005859375,0.9893951416015625,-0.159271240234375
1704913143864371000,1.713370849609375,-0.035247802734375,0.96661376953125,-0.15802001953125
1704913143874310100,1.72331005859375,-0.01824951171875,0.9532470703125,-0.1591796875
1704913143884249000,1.7332490234375,-0.0010833740234375,0.9481201171875,-0.1606292724609375
1704913143894188800,1.743188720703125,0.0222320556640625,0.9463348388671875,-0.1677093505859375
1704913143904127700,1.753127685546875,0.0435791015625,0.946563720703125,-0.1756744384765625
1704913143914067000,1.76306689453125,0.05572509765625,0.9400177001953125,-0.183074951171875
1704913143924006000,1.773005859375,0.0653839111328125,0.9285430908203125,-0.1848907470703125
1704913143933945900,1.78294580078125,0.0663604736328125,0.91998291015625,-0.1911163330078125
1704913143943884800,1.792884765625,0.065582275390625,0.9190826416015625,-0.1983795166015625
1704913143953823700,1.80282373046875,0.0583343505859375,0.9281005859375,-0.2069244384765625
1704913143963763000,1.812762939453125,0.0477447509765625,0.933868408203125,-0.2106475830078125
1704913143973703000,1.822702880859375,0.0370941162109375,0.92510986328125,-0.2092132568359375
1704913143983641900,1.832641845703125,0.0148468017578125,0.8946380615234375,-0.20098876953125
1704913143993580800,1.842580810546875,-0.0281219482421875,0.8452911376953125,-0.1939239501953125
1704913144003520000,1.85252001953125,-0.07623291015625,0.785980224609375,-0.1845245361328125
1704913144013460000,1.8624599609375,-0.117431640625,0.7312164306640625,-0.1660919189453125
1704913144023399000,1.87239892578125,-0.1523284912109375,0.6937103271484375,-0.13470458984375
1704913144033337900,1.882337890625,-0.168487548828125,0.6822662353515625,-0.095245361328125
1704913144043277000,1.892277099609375,-0.1692962646484375,0.69708251953125,-0.066650390625
1704913144053217000,1.902217041015625,-0.1698760986328125,0.726104736328125,-0.0555267333984375
1704913144063156000,1.912156005859375,-0.178955078125,0.7687530517578125,-0.04925537109375
1704913144073095000,1.922094970703125,-0.192413330078125,0.81732177734375,-0.0564117431640625
1704913144083034000,1.9320341796875,-0.1995391845703125,0.8658447265625,-0.06768798828125
1704913144092973800,1.941973876953125,-0.194793701171875,0.9107818603515625,-0.085479736328125
1704913144102913000,1.9519130859375,-0.176483154296875,0.949554443359375,-0.1111297607421875
1704913144112852000,1.96185205078125,-0.1490631103515625,0.972564697265625,-0.1403350830078125
1704913144122791000,1.971791015625,-0.11114501953125,0.993499755859375,-0.1789398193359375
1704913144132731000,1.98173095703125,-0.059051513671875,1.022186279296875,-0.222564697265625
1704913144142669800,1.991669921875,-0.0003509521484375,1.0619354248046875,-0.2691650390625
1704913144152608800,2.00160888671875,0.056884765625,1.107666015625,-0.3132781982421875
1704913144162547700,2.011547607421875,0.1032867431640625,1.1562347412109375,-0.3457794189453125
1704913144172488000,2.021488037109375,0.1804351806640625,1.205657958984375,-0.3582000732421875
1704913144182427000,2.031427001953125,0.2440032958984375,1.2440643310546875,-0.357025146484375
1704913144192365800,2.04136572265625,0.2308502197265625,1.2198333740234375,-0.3442840576171875
1704913144202304800,2.0513046875,0.2297210693359375,1.1428680419921875,-0.3109588623046875
1704913144212245000,2.061244873046875,0.2122650146484375,1.06817626953125,-0.2741546630859375
1704913144222184000,2.071183837890625,0.153472900390625,1.0283050537109375,-0.243621826171875
1704913144232123000,2.081122802734375,0.079742431640625,1.0157012939453125,-0.222686767578125
1704913144242061800,2.091061767578125,0.034393310546875,1.018951416015625,-0.19732666015625
1704913144252001500,2.10100146484375,0.0103912353515625,1.0289154052734375,-0.1672515869140625
1704913144261940500,2.1109404296875,-0.0043182373046875,1.0360870361328125,-0.1414794921875
1704913144271879700,2.120879638671875,-0.0206146240234375,1.0282745361328125,-0.120147705078125
1704913144281818600,2.130818603515625,-0.04150390625,1.00811767578125,-0.1065673828125
1704913144291758600,2.140758544921875,-0.0630035400390625,0.9893646240234375,-0.0979156494140625
1704913144301697500,2.150697509765625,-0.0800628662109375,0.9737548828125,-0.089813232421875
1704913144311636700,2.16063671875,-0.0942230224609375,0.9680328369140625,-0.082183837890625
1704913144321576700,2.17057666015625,-0.0974273681640625,0.966552734375,-0.076873779296875
1704913144331515600,2.180515625,-0.0918731689453125,0.972503662109375,-0.072845458984375
1704913144341454600,2.19045458984375,-0.077667236328125,0.9810791015625,-0.068145751953125
1704913144351393800,2.200393798828125,-0.0635223388671875,0.9898834228515625,-0.06927490234375
1704913144361333500,2.21033349609375,-0.0499725341796875,0.992584228515625,-0.0706939697265625
1704913144371272400,2.2202724609375,-0.040740966796875,0.992279052734375,-0.071563720703125
1704913144381211400,2.23021142578125,-0.03887939453125,0.98773193359375,-0.07025146484375
1704913144391150600,2.240150634765625,-0.0496673583984375,0.98565673828125,-0.0747222900390625
1704913144401090600,2.250090576171875,-0.0616912841796875,0.9869537353515625,-0.0776824951171875
1704913144411029500,2.260029541015625,-0.0796966552734375,0.9935760498046875,-0.082366943359375
1704913144420968400,2.269968505859375,-0.095001220703125,0.9952239990234375,-0.0835113525390625
1704913144430907400,2.279907470703125,-0.096923828125,0.9964752197265625,-0.0850982666015625
1704913144440847600,2.28984765625,-0.0873565673828125,1.003814697265625,-0.0885467529296875
1704913144450786600,2.29978662109375,-0.071563720703125,1.0140228271484375,-0.0958404541015625
1704913144460725500,2.3097255859375,-0.0631103515625,1.019378662109375,-0.098876953125
1704913144470664400,2.31966455078125,-0.064422607421875,1.0114898681640625,-0.0964202880859375
1704913144480604700,2.329604736328125,-0.0689697265625,0.9961395263671875,-0.0880126953125
1704913144490543600,2.339543701171875,-0.0709381103515625,0.9859619140625,-0.078582763671875
1704913144500482600,2.349482666015625,-0.0692901611328125,0.9742431640625,-0.071197509765625
1704913144510421500,2.35942138671875,-0.0799407958984375,0.9622039794921875,-0.066253662109375
1704913144520361700,2.36936181640625,-0.099212646484375,0.9555511474609375,-0.066009521484375
1704913144530300700,2.37930078125,-0.1170501708984375,0.9553680419921875,-0.0682220458984375
1704913144540239600,2.389239501953125,-0.1282501220703125,0.9637908935546875,-0.07623291015625
1704913144550178600,2.399178466796875,-0.1302642822265625,0.9783935546875,-0.0886688232421875
1704913144560118800,2.409118896484375,-0.127716064453125,0.993316650390625,-0.100982666015625
1704913144570057700,2.4190576171875,-0.12274169921875,1.0062408447265625,-0.116424560546875
1704913144579996700,2.42899658203125,-0.111846923828125,1.012664794921875,-0.13323974609375
1704913144589935600,2.438935546875,-0.0925445556640625,1.0160675048828125,-0.14892578125
1704913144599875600,2.44887548828125,-0.0718994140625,1.01556396484375,-0.16033935546875
1704913144609814500,2.458814453125,-0.057769775390625,1.0093994140625,-0.1662445068359375
1704913144619753500,2.46875341796875,-0.050567626953125,1.0048980712890625,-0.16632080078125
1704913144629693400,2.478693359375,-0.0476531982421875,1.0025482177734375,-0.1635894775390625
1704913144639632600,2.488632568359375,-0.0491790771484375,1.000152587890625,-0.15374755859375
1704913144649571600,2.498571533203125,-0.05792236328125,0.9970245361328125,-0.1351776123046875
1704913144659510500,2.508510498046875,-0.071044921875,0.9964447021484375,-0.1135711669921875
1704913144669450500,2.518450439453125,-0.0841522216796875,0.98785400390625,-0.094818115234375
1704913144679389400,2.528389404296875,-0.0962982177734375,0.9795379638671875,-0.0781097412109375
1704913144689328600,2.53832861328125,-0.10943603515625,0.9754638671875,-0.067779541015625
1704913144699267600,2.548267578125,-0.124114990234375,0.9737396240234375,-0.05853271484375
1704913144709207600,2.55820751953125,-0.1362762451171875,0.972747802734375,-0.05426025390625
1704913144719146500,2.568146484375,-0.1438140869140625,0.974456787109375,-0.0546417236328125
1704913144729085700,2.578085693359375,-0.1464080810546875,0.977935791015625,-0.0580902099609375
1704913144739024600,2.588024658203125,-0.1439971923828125,0.985809326171875,-0.070465087890625
1704913144748964600,2.597964599609375,-0.1366119384765625,0.992340087890625,-0.08819580078125
1704913144758903600,2.607903564453125,-0.1231842041015625,0.99298095703125,-0.1098175048828125
1704913144768842800,2.6178427734375,-0.114593505859375,0.989837646484375,-0.1281890869140625
1704913144778781700,2.62778173828125,-0.1056365966796875,0.98876953125,-0.1396331787109375
1704913144788721700,2.6377216796875,-0.095977783203125,0.9897918701171875,-0.1468353271484375
1704913144798660600,2.64766064453125,-0.0878753662109375,0.9895172119140625,-0.147369384765625
1704913144808599600,2.657599609375,-0.079833984375,0.990753173828125,-0.143829345703125
1704913144818538800,2.667538818359375,-0.0755157470703125,0.9939727783203125,-0.13922119140625
1704913144828478500,2.677478515625,-0.0720672607421875,0.9920501708984375,-0.13153076171875
1704913144838417400,2.68741748046875,-0.071014404296875,0.987548828125,-0.1210479736328125
1704913144848356600,2.697356689453125,-0.0740814208984375,0.9834136962890625,-0.1118927001953125
1704913144858295600,2.707295654296875,-0.074615478515625,0.9737548828125,-0.1037750244140625
1704913144868235500,2.717235595703125,-0.08001708984375,0.9654388427734375,-0.0990753173828125
1704913144878174500,2.727174560546875,-0.0843505859375,0.960479736328125,-0.098907470703125
1704913144888113400,2.737113525390625,-0.0882568359375,0.958892822265625,-0.1026458740234375
1704913144898052600,2.747052490234375,-0.09100341796875,0.9647674560546875,-0.1087493896484375
1704913144907992600,2.75699267578125,-0.090576171875,0.9783477783203125,-0.1190185546875
1704913144917931500,2.766931640625,-0.084442138671875,0.9958038330078125,-0.1254119873046875
1704913144927870500,2.776870361328125,-0.0739593505859375,1.012847900390625,-0.13201904296875
1704913144937810700,2.786810791015625,-0.0601959228515625,1.02215576171875,-0.13897705078125
1704913144947749600,2.79674951171875,-0.047760009765625,1.0261077880859375,-0.1417388916015625
1704913144957688600,2.8066884765625,-0.035247802734375,1.026397705078125,-0.1469268798828125
1704913144967627500,2.81662744140625,-0.025390625,1.016845703125,-0.15509033203125
1704913144977567700,2.826567626953125,-0.0189666748046875,1.004241943359375,-0.1600799560546875
1704913144987506700,2.836506591796875,-0.0170745849609375,0.992034912109375,-0.1663970947265625
1704913144997445600,2.846445556640625,-0.0184783935546875,0.9806365966796875,-0.17303466796875
1704913145007384600,2.856384521484375,-0.0196990966796875,0.9741973876953125,-0.173858642578125
1704913145017324800,2.86632470703125,-0.0212860107421875,0.9691619873046875,-0.1741790771484375
1704913145027263700,2.876263671875,-0.02386474609375,0.9702301025390625,-0.1678466796875
1704913145037202700,2.88620263671875,-0.03009033203125,0.97723388671875,-0.1621551513671875
1704913145047141600,2.8961416015625,-0.04278564453125,0.9840240478515625,-0.1574554443359375
1704913145057081600,2.90608154296875,-0.0545654296875,0.9900970458984375,-0.1488037109375
1704913145067020500,2.9160205078125,-0.0605316162109375,0.9908905029296875,-0.140167236328125
1704913145076959500,2.92595947265625,-0.0628662109375,0.98748779296875,-0.1361083984375
1704913145086898700,2.935898681640625,-0.067474365234375,0.98199462890625,-0.1367645263671875
1704913145096838400,2.94583837890625,-0.07073974609375,0.975921630859375,-0.1402587890625
1704913145106777600,2.955777587890625,-0.0664520263671875,0.9728240966796875,-0.1455230712890625
1704913145116716500,2.965716552734375,-0.05712890625,0.9730072021484375,-0.152191162109375
1704913145126655500,2.975655517578125,-0.0397186279296875,0.9750823974609375,-0.1604766845703125
1704913145136595500,2.985595458984375,-0.0153045654296875,0.9805145263671875,-0.1710052490234375
1704913145146534700,2.99553466796875,0.011505126953125,0.9865875244140625,-0.1829986572265625
1704913145156473600,3.0054736328125,0.0333709716796875,0.99212646484375,-0.1925201416015625
1704913145166413600,3.01541357421875,0.04669189453125,0.995208740234375,-0.2027130126953125
1704913145176352500,3.0253525390625,0.0532684326171875,1.0004730224609375,-0.2150115966796875
1704913145186291700,3.035291748046875,0.055572509765625,0.99981689453125,-0.2263336181640625
1704913145196230700,3.045230712890625,0.0510406494140625,0.9997100830078125,-0.23974609375
1704913145206170600,3.055170654296875,0.0405426025390625,0.99810791015625,-0.251495361328125
1704913145216109600,3.065109619140625,0.0316009521484375,0.9962158203125,-0.262451171875
1704913145226048800,3.075048828125,0.02392578125,0.9901123046875,-0.266204833984375
1704913145235987700,3.08498779296875,0.0190277099609375,0.9822998046875,-0.26708984375
1704913145245927700,3.094927734375,0.0161590576171875,0.979278564453125,-0.265899658203125
1704913145255866600,3.10486669921875,0.0169677734375,0.974578857421875,-0.26312255859375
1704913145265805600,3.1148056640625,0.020233154296875,0.9781494140625,-0.2587890625
1704913145275744800,3.124744873046875,0.0211639404296875,0.9828643798828125,-0.2562103271484375
1704913145285684500,3.1346845703125,0.02288818359375,0.983001708984375,-0.25341796875
1704913145295623400,3.14462353515625,0.0287017822265625,0.9809112548828125,-0.2501373291015625
1704913145305562600,3.154562744140625,0.0372314453125,0.9758758544921875,-0.2475738525390625
1704913145315501600,3.16450146484375,0.04156494140625,0.96771240234375,-0.2393341064453125
1704913145325441500,3.174441650390625,0.0442047119140625,0.95721435546875,-0.2277374267578125
1704913145335380500,3.18438037109375,0.0436859130859375,0.946929931640625,-0.2155914306640625
1704913145345319400,3.1943193359375,0.0449371337890625,0.934906005859375,-0.202667236328125
1704913145355259600,3.204259765625,0.0499267578125,0.93603515625,-0.19024658203125
1704913145365198600,3.214198486328125,0.059906005859375,0.9436492919921875,-0.1770477294921875
1704913145375137500,3.224137451171875,0.073516845703125,0.951416015625,-0.1686248779296875
1704913145385076700,3.23407666015625,0.080413818359375,0.952606201171875,-0.162567138671875
1704913145395016700,3.2440166015625,0.085784912109375,0.955810546875,-0.16204833984375
1704913145404955600,3.25395556640625,0.1050262451171875,0.9671783447265625,-0.170928955078125
1704913145414894600,3.26389453125,0.122406005859375,0.9825286865234375,-0.18682861328125
1704913145424833800,3.273833740234375,0.1306915283203125,0.9959716796875,-0.2006378173828125
1704913145434773800,3.283773681640625,0.1338348388671875,1.0047454833984375,-0.208282470703125
1704913145444712700,3.293712646484375,0.1381378173828125,1.0087127685546875,-0.204559326171875
1704913145454651600,3.303651611328125,0.1325531005859375,1.0113067626953125,-0.198577880859375
1704913145464590800,3.3135908203125,0.12432861328125,1.016326904296875,-0.1967315673828125
1704913145474530800,3.32353076171875,0.1329193115234375,1.0209808349609375,-0.2066802978515625
1704913145484469800,3.3334697265625,0.1292572021484375,1.01318359375,-0.2281036376953125
1704913145494408700,3.34340869140625,0.089141845703125,1,-0.253570556640625
1704913145504347600,3.35334765625,-0.0022430419921875,0.9735870361328125,-0.267181396484375
1704913145514287600,3.36328759765625,-0.0941314697265625,0.9407501220703125,-0.2709197998046875
1704913145524226600,3.3732265625,-0.1572265625,0.90350341796875,-0.2574310302734375
1704913145534165500,3.38316552734375,-0.181243896484375,0.8689117431640625,-0.2299346923828125
1704913145544105700,3.393105712890625,-0.1690673828125,0.839263916015625,-0.2102203369140625
1704913145554044700,3.403044677734375,-0.129913330078125,0.834228515625,-0.2007598876953125
1704913145563983600,3.412983642578125,-0.0844573974609375,0.8558502197265625,-0.19964599609375
1704913145573922600,3.422922607421875,-0.0410308837890625,0.8892974853515625,-0.2037811279296875
1704913145583862800,3.43286279296875,-0.0042266845703125,0.92718505859375,-0.2115936279296875
1704913145593801700,3.4428017578125,0.032623291015625,0.9665374755859375,-0.2190093994140625
1704913145603740700,3.45274072265625,0.0666351318359375,1.004852294921875,-0.222198486328125
1704913145613679600,3.4626796875,0.078643798828125,1.032623291015625,-0.21734619140625
1704913145623619600,3.47261962890625,0.0297698974609375,1.0393218994140625,-0.2137298583984375
1704913145633558800,3.482558837890625,-0.0374908447265625,1.01654052734375,-0.2071075439453125
1704913145643497700,3.492497802734375,-0.0630035400390625,0.9812164306640625,-0.1911773681640625
1704913145653436700,3.502436767578125,-0.0526580810546875,0.9587249755859375,-0.1678314208984375
1704913145663376600,3.512376708984375,-0.036285400390625,0.95526123046875,-0.1475677490234375
1704913145673315800,3.52231591796875,-0.0052337646484375,0.9733428955078125,-0.1202392578125
1704913145683254800,3.5322548828125,0.0275115966796875,0.9906158447265625,-0.090179443359375
1704913145693193700,3.54219384765625,0.0305023193359375,0.9912261962890625,-0.061553955078125
1704913145703133700,3.5521337890625,0.0106658935546875,0.9814605712890625,-0.0464935302734375
1704913145713073000,3.562072998046875,-0.0073699951171875,0.9820709228515625,-0.0374908447265625
1704913145723011800,3.57201171875,-0.03094482421875,0.9969024658203125,-0.0323486328125
1704913145732951600,3.58195166015625,-0.058258056640625,1.0118560791015625,-0.0319366455078125
1704913145742890500,3.591890380859375,-0.0736236572265625,1.0373992919921875,-0.0361785888671875
1704913145752829700,3.60182958984375,-0.1085052490234375,1.08648681640625,-0.04388427734375
1704913145762768600,3.6117685546875,-0.1392669677734375,1.1342620849609375,-0.0642547607421875
1704913145772708600,3.62170849609375,-0.145233154296875,1.1470794677734375,-0.0827789306640625
1704913145782647600,3.6316474609375,-0.1502685546875,1.112396240234375,-0.086944580078125
1704913145792586500,3.64158642578125,-0.1469879150390625,1.0441131591796875,-0.0740203857421875
1704913145802525700,3.651525634765625,-0.12774658203125,0.9876251220703125,-0.0570068359375
1704913145812465700,3.661465576171875,-0.1064453125,0.967864990234375,-0.0386962890625
1704913145822404600,3.671404541015625,-0.0916290283203125,0.977264404296875,-0.026153564453125
1704913145832343600,3.681343505859375,-0.08807373046875,0.9992828369140625,-0.0122528076171875
1704913145842282800,3.69128271484375,-0.103515625,1.0208740234375,0.00030517578125
1704913145852222700,3.70122265625,-0.1248321533203125,1.0352630615234375,0.0147247314453125
1704913145862161700,3.71116162109375,-0.144561767578125,1.039276123046875,0.0344696044921875
1704913145872100600,3.7211005859375,-0.1633758544921875,1.0364227294921875,0.054901123046875
1704913145882040800,3.731040771484375,-0.18505859375,1.03228759765625,0.07647705078125
1704913145891979800,3.740979736328125,-0.2059173583984375,1.033447265625,0.1025390625
1704913145901918700,3.750918701171875,-0.214935302734375,1.045928955078125,0.1227264404296875
1704913145911857700,3.760857666015625,-0.196197509765625,1.053314208984375,0.1541748046875
1704913145921797600,3.770797607421875,-0.1455535888671875,1.0568084716796875,0.1917724609375
1704913145931736800,3.78073681640625,-0.0488739013671875,1.0491790771484375,0.2248992919921875
1704913145941675800,3.79067578125,0.0600433349609375,1.04620361328125,0.246185302734375
1704913145951614700,3.80061474609375,0.1383514404296875,1.0330810546875,0.23138427734375
1704913145961554700,3.8105546875,0.1905364990234375,1.0344696044921875,0.1923828125
1704913145971493600,3.82049365234375,0.1555633544921875,1.0239715576171875,0.1139373779296875
1704913145981432600,3.8304326171875,0.0721282958984375,0.9909515380859375,0.0234222412109375
1704913145991371500,3.84037158203125,-0.00152587890625,0.953948974609375,-0.0418853759765625
1704913146001311700,3.850311767578125,-0.04815673828125,0.9284515380859375,-0.0743408203125
1704913146011250700,3.860250732421875,-0.0728759765625,0.919647216796875,-0.078704833984375
1704913146021189600,3.870189697265625,-0.0984039306640625,0.9182281494140625,-0.0657806396484375
1704913146031129600,3.880129638671875,-0.1147003173828125,0.914520263671875,-0.0389404296875
1704913146041068500,3.890068603515625,-0.117034912109375,0.912322998046875,-0.005828857421875
1704913146051007700,3.9000078125,-0.09967041015625,0.90948486328125,0.02557373046875
1704913146060946700,3.90994677734375,-0.081573486328125,0.9104156494140625,0.05072021484375
1704913146070886700,3.91988671875,-0.0745391845703125,0.902679443359375,0.0627288818359375
1704913146080825600,3.92982568359375,-0.0810699462890625,0.8785858154296875,0.06011962890625
1704913146090764800,3.939764892578125,-0.0844573974609375,0.8527679443359375,0.0560150146484375
1704913146100703700,3.949703857421875,-0.11419677734375,0.8335418701171875,0.0573883056640625
1704913146110643700,3.959643798828125,-0.1493072509765625,0.8207550048828125,0.0597991943359375
1704913146120582700,3.969582763671875,-0.1539764404296875,0.803619384765625,0.0573883056640625
1704913146130521900,3.97952197265625,-0.126983642578125,0.8025360107421875,0.0590362548828125
1704913146140461600,3.989461669921875,-0.0583038330078125,0.819366455078125,0.069427490234375
1704913146150400500,3.999400390625,0.0562896728515625,0.860565185546875,0.074951171875
1704913146160339700,4.009339599609375,0.1689300537109375,0.920806884765625,0.0552978515625
1704913146170279000,4.01927880859375,0.203948974609375,0.9829559326171875,0.0171051025390625
1704913146180218600,4.029218505859375,0.1390533447265625,1.0437164306640625,-0.020263671875
1704913146190157600,4.039157470703125,0.040283203125,1.0848236083984375,-0.035125732421875
1704913146200096500,4.049096435546875,-0.0475921630859375,1.0907745361328125,-0.0321807861328125
1704913146210035500,4.059035400390625,-0.1184844970703125,1.061065673828125,-0.019287109375
1704913146219975700,4.0689755859375,-0.138519287109375,1.0054473876953125,0.0095672607421875
1704913146229914600,4.07891455078125,-0.1252288818359375,0.9682769775390625,0.036224365234375
1704913146239853600,4.088853515625,-0.1403961181640625,0.9593658447265625,0.047027587890625
1704913146249792500,4.09879248046875,-0.1986846923828125,0.9693603515625,0.037628173828125
1704913146259732700,4.108732666015625,-0.282958984375,0.9952392578125,0.0206298828125
1704913146269671700,4.118671630859375,-0.3707122802734375,1.01824951171875,0.00885009765625
1704913146279610600,4.128610595703125,-0.4345245361328125,1.0309600830078125,0.0009613037109375
1704913146289550800,4.13855078125,-0.47186279296875,1.0317230224609375,-0.0041351318359375
1704913146299489800,4.14848974609375,-0.4693756103515625,1.0352325439453125,-0.0022430419921875
1704913146309428700,4.1584287109375,-0.4032745361328125,1.052886962890625,0.0157623291015625
1704913146319367700,4.16836767578125,-0.2818756103515625,1.08673095703125,0.0334930419921875
1704913146329307600,4.1783076171875,-0.143157958984375,1.140472412109375,0.0370025634765625
1704913146339246800,4.188246826171875,0.0068817138671875,1.236724853515625,0.0610504150390625
1704913146349185800,4.198185791015625,0.1445159912109375,1.3549346923828125,0.0922088623046875
1704913146359124700,4.208124755859375,0.319366455078125,1.4659881591796875,0.0999603271484375
1704913146369064400,4.218064453125,0.5188140869140625,1.569793701171875,0.0835418701171875
1704913146379003600,4.228003662109375,0.62255859375,1.656829833984375,0.0378570556640625
1704913146388942600,4.237942626953125,0.62908935546875,1.679840087890625,0.005889892578125
1704913146398882600,4.247882568359375,0.559600830078125,1.6100311279296875,-0.01373291015625
1704913146408821500,4.257821533203125,0.436370849609375,1.4980926513671875,-0.001861572265625
1704913146418760700,4.2677607421875,0.2451171875,1.3821258544921875,0.0213775634765625
1704913146428699600,4.27769970703125,0.04437255859375,1.3250732421875,0.0659942626953125
1704913146438639600,4.2876396484375,-0.1856842041015625,1.29791259765625,0.10260009765625
1704913146448578600,4.29757861328125,-0.3985443115234375,1.29046630859375,0.119232177734375
1704913146458517800,4.307517822265625,-0.5847625732421875,1.2896575927734375,0.0852203369140625
1704913146468456700,4.317456787109375,-0.76531982421875,1.3143310546875,0.0217742919921875
1704913146478396700,4.327396728515625,-0.8995819091796875,1.3515472412109375,-0.04949951171875
1704913146488335600,4.337335693359375,-0.9241790771484375,1.3593597412109375,-0.0951080322265625
1704913146498274600,4.347274658203125,-0.859710693359375,1.3314056396484375,-0.105224609375
1704913146508214800,4.35721484375,-0.734832763671875,1.25439453125,-0.09814453125
1704913146518154200,4.367154296875,-0.581756591796875,1.1279754638671875,-0.0806732177734375
1704913146528093200,4.37709326171875,-0.4673614501953125,1.006256103515625,-0.0676422119140625
1704913146538032000,4.3870322265625,-0.3849945068359375,0.909027099609375,-0.058135986328125
1704913146547971800,4.396971923828125,-0.3059539794921875,0.8319549560546875,-0.0452423095703125
1704913146557911000,4.4069111328125,-0.241973876953125,0.765289306640625,-0.0360870361328125
1704913146567850200,4.416850341796875,-0.1966705322265625,0.723785400390625,-0.03326416015625
1704913146577789200,4.4267890625,-0.1680908203125,0.718414306640625,-0.041412353515625
1704913146587729000,4.43672900390625,-0.1489715576171875,0.743072509765625,-0.045440673828125
1704913146597667800,4.446667724609375,-0.0419769287109375,0.80908203125,-0.055511474609375
1704913146607607000,4.45660693359375,0.0681610107421875,0.9101409912109375,-0.071380615234375
1704913146617547000,4.466547119140625,0.04290771484375,1.0126953125,-0.0710601806640625
1704913146627486000,4.47648583984375,0.0014495849609375,1.0855865478515625,-0.06976318359375
1704913146637425000,4.4864248046875,-0.0208282470703125,1.1251678466796875,-0.0770111083984375
1704913146647364000,4.496364013671875,0.0135650634765625,1.1537017822265625,-0.0905609130859375
1704913146657304000,4.506303955078125,-0.084228515625,1.114105224609375,-0.105804443359375
1704913146667243000,4.516242919921875,-0.082855224609375,1.0283050537109375,-0.0938262939453125
1704913146677182000,4.526181884765625,-0.019256591796875,0.925994873046875,-0.0555572509765625
1704913146687122200,4.5361220703125,0.012939453125,0.8363037109375,-0.0301513671875
1704913146697061000,4.54606103515625,-0.0039215087890625,0.7660980224609375,-0.023773193359375
1704913146707000000,4.556,-0.063018798828125,0.719482421875,-0.0404510498046875
1704913146716939000,4.56593896484375,-0.1414642333984375,0.691375732421875,-0.072509765625
1704913146726879200,4.575879150390625,-0.20513916015625,0.66717529296875,-0.104278564453125
1704913146736818200,4.585818115234375,-0.241424560546875,0.6445465087890625,-0.1297607421875
1704913146746757000,4.595757080078125,-0.2449798583984375,0.6215667724609375,-0.1433258056640625
1704913146756696000,4.605696044921875,-0.234588623046875,0.601287841796875,-0.1510162353515625
1704913146766636000,4.615635986328125,-0.21630859375,0.58544921875,-0.1507110595703125
1704913146776575000,4.625574951171875,-0.2013092041015625,0.5704498291015625,-0.15631103515625
1704913146786514000,4.635513916015625,-0.1981353759765625,0.5635986328125,-0.1681365966796875
1704913146796454000,4.645453857421875,-0.20550537109375,0.568939208984375,-0.186737060546875
1704913146806393000,4.65539306640625,-0.2215728759765625,0.5819549560546875,-0.2089080810546875
1704913146816332000,4.66533203125,-0.2391510009765625,0.59552001953125,-0.2312469482421875
1704913146826271000,4.67527099609375,-0.2506866455078125,0.6114654541015625,-0.247955322265625
1704913146836211000,4.6852109375,-0.2513427734375,0.62347412109375,-0.263153076171875
1704913146846150100,4.695150146484375,-0.244842529296875,0.6266632080078125,-0.2754669189453125
1704913146856089000,4.705089111328125,-0.230865478515625,0.6180572509765625,-0.2780914306640625
1704913146866028000,4.715028076171875,-0.207489013671875,0.6064910888671875,-0.26654052734375
1704913146875968000,4.724968017578125,-0.1859130859375,0.6036834716796875,-0.248748779296875
1704913146885907000,4.734906982421875,-0.1827850341796875,0.6271209716796875,-0.22900390625
1704913146895846100,4.74484619140625,-0.1933135986328125,0.682769775390625,-0.217742919921875
1704913146905786000,4.7547861328125,-0.217529296875,0.7689361572265625,-0.2150115966796875
1704913146915725000,4.76472509765625,-0.2396087646484375,0.8759002685546875,-0.214447021484375
1704913146925664000,4.7746640625,-0.2275848388671875,1.0126800537109375,-0.2006683349609375
1704913146935603200,4.784603271484375,-0.008209228515625,1.1758575439453125,-0.1292572021484375
1704913146945543200,4.794543212890625,0.54107666015625,1.376373291015625,-0.0121307373046875
1704913146955482000,4.804482177734375,0.9018402099609375,1.5239105224609375,0.0565948486328125
1704913146965421000,4.814421142578125,0.785797119140625,1.5911102294921875,0.0381927490234375
1704913146975361000,4.824361083984375,0.386566162109375,1.604736328125,-0.0387725830078125
1704913146985300000,4.834300048828125,-0.021942138671875,1.581573486328125,-0.1038665771484375
1704913146995239000,4.844239013671875,-0.2143096923828125,1.4615020751953125,-0.0980072021484375
1704913147005177900,4.854177734375,-0.192047119140625,1.366241455078125,-0.0280914306640625
1704913147015118000,4.8641181640625,-0.1708526611328125,1.355926513671875,0.0089874267578125
1704913147025057000,4.87405712890625,-0.1241455078125,1.3328094482421875,0.0442962646484375
1704913147034996000,4.883995849609375,-0.0679931640625,1.302001953125,0.0937957763671875
1704913147044935000,4.893934814453125,-0.0428619384765625,1.2324676513671875,0.1391448974609375
1704913147054875100,4.903875244140625,-0.0545806884765625,1.214324951171875,0.177459716796875
1704913147064814000,4.91381396484375,-0.0684661865234375,1.2198638916015625,0.221099853515625
1704913147074753000,4.9237529296875,-0.0784149169921875,1.2075042724609375,0.27264404296875
1704913147084693000,4.93369287109375,-0.089813232421875,1.1950836181640625,0.318634033203125
1704913147094632200,4.943632080078125,-0.0964508056640625,1.2093658447265625,0.35748291015625
1704913147104571100,4.953571044921875,-0.08697509765625,1.2050628662109375,0.3895111083984375
1704913147114510000,4.963510009765625,-0.059173583984375,1.172821044921875,0.4131011962890625
1704913147124450000,4.973449951171875,-0.0311737060546875,1.1297149658203125,0.426483154296875
1704913147134389200,4.98338916015625,0.005340576171875,1.1006011962890625,0.4312286376953125
1704913147144328200,4.993328125,0.0628814697265625,1.0749359130859375,0.393890380859375
1704913147154268000,5.003267822265625,0.1293792724609375,1.0679168701171875,0.3440093994140625
1704913147164207000,5.01320703125,0.15313720703125,1.0808563232421875,0.2761688232421875
1704913147174146000,5.02314599609375,0.117919921875,1.0810394287109375,0.190826416015625
1704913147184085200,5.033085205078125,0.0368194580078125,1.06976318359375,0.1146392822265625
1704913147194025000,5.04302490234375,-0.048583984375,1.0535888671875,0.0543670654296875
1704913147203964000,5.0529638671875,-0.113189697265625,1.031890869140625,-0.004852294921875
1704913147213902800,5.06290283203125,-0.1378326416015625,1.0160064697265625,-0.055267333984375
1704913147223842000,5.072842041015625,-0.1208343505859375,1.00543212890625,-0.099822998046875
1704913147233782000,5.082781982421875,-0.0765838623046875,1.0165252685546875,-0.12481689453125
1704913147243721000,5.092720947265625,-0.03173828125,1.0326690673828125,-0.1309814453125
1704913147253660000,5.102659912109375,-0.024261474609375,1.0429229736328125,-0.1100006103515625
1704913147263600000,5.11260009765625,-0.018524169921875,1.045867919921875,-0.0761260986328125
1704913147273539000,5.1225390625,-0.014373779296875,1.02642822265625,-0.04791259765625
1704913147283478000,5.13247802734375,-0.0220184326171875,0.9987030029296875,-0.0343780517578125
1704913147293417000,5.1424169921875,-0.035186767578125,0.9768829345703125,-0.021270751953125
1704913147303357200,5.152357177734375,-0.055816650390625,0.95416259765625,-0.0116424560546875
1704913147313296100,5.162296142578125,-0.07733154296875,0.924224853515625,-0.0148468017578125
1704913147323235000,5.172235107421875,-0.07403564453125,0.9008941650390625,-0.022613525390625
1704913147333175000,5.182175048828125,-0.062164306640625,0.897003173828125,-0.0276641845703125
1704913147343114200,5.1921142578125,-0.04638671875,0.9220123291015625,-0.02178955078125
1704913147353053200,5.20205322265625,-0.0365447998046875,0.958709716796875,-0.0061492919921875
1704913147362992000,5.2119921875,-0.0211944580078125,0.991668701171875,0.0087127685546875
1704913147372931800,5.221931884765625,0.0000152587890625,1.0162200927734375,0.0294036865234375
1704913147382871000,5.23187109375,0.009185791015625,1.025177001953125,0.0478057861328125
1704913147392810000,5.24181005859375,0.0092926025390625,1.0086822509765625,0.053192138671875
1704913147402750000,5.25175,0.00341796875,0.979766845703125,0.0532684326171875
1704913147412689000,5.26168896484375,-0.0116729736328125,0.9460296630859375,0.052459716796875
1704913147422628000,5.271628173828125,-0.0275115966796875,0.9092864990234375,0.0507965087890625
1704913147432567000,5.281567138671875,-0.0286102294921875,0.8795623779296875,0.0409088134765625
1704913147442507000,5.291507080078125,-0.0458221435546875,0.851226806640625,0.029205322265625
1704913147452446000,5.301446044921875,-0.06475830078125,0.8267669677734375,0.0188140869140625
1704913147462385000,5.311385009765625,-0.051605224609375,0.808990478515625,0.020111083984375
1704913147472324000,5.321323974609375,-0.028076171875,0.7910003662109375,0.0153656005859375
1704913147482264000,5.33126416015625,-0.0083160400390625,0.7779998779296875,0.0032196044921875
1704913147492203000,5.341203125,-0.0006866455078125,0.7758636474609375,-0.004302978515625
1704913147502142000,5.351141845703125,-0.005218505859375,0.775299072265625,-0.0120086669921875
1704913147512082200,5.361082275390625,0.0011749267578125,0.7846832275390625,-0.0220794677734375
1704913147522021000,5.371021240234375,0.0098724365234375,0.81353759765625,-0.013336181640625
1704913147531960000,5.3809599609375,0.023834228515625,0.840972900390625,0.00140380859375
1704913147541899000,5.39089892578125,0.0412445068359375,0.861175537109375,0.0166015625
1704913147551839200,5.400839111328125,0.0662078857421875,0.8842010498046875,0.0294036865234375
1704913147561778200,5.410778076171875,0.112213134765625,0.921783447265625,0.0383453369140625
1704913147571717000,5.420717041015625,0.19293212890625,0.9744110107421875,0.03765869140625
1704913147581656800,5.43065673828125,0.2512969970703125,1.0428619384765625,0.034515380859375
1704913147591596000,5.440595947265625,0.294097900390625,1.11602783203125,0.02960205078125
1704913147601535000,5.450534912109375,0.295257568359375,1.1818389892578125,0.0246734619140625
1704913147611474000,5.460473876953125,0.23974609375,1.21575927734375,0.0292816162109375
1704913147621414000,5.470413818359375,0.1542205810546875,1.206390380859375,0.03985595703125
1704913147631353000,5.48035302734375,0.055908203125,1.1579437255859375,0.0599365234375
1704913147641292000,5.4902919921875,-0.025634765625,1.09429931640625,0.0794677734375
1704913147651231200,5.500231201171875,-0.0693206787109375,1.0315093994140625,0.10003662109375
1704913147661170200,5.510170166015625,-0.075164794921875,0.9793243408203125,0.1285247802734375
1704913147671109000,5.520109130859375,-0.0525970458984375,0.9346466064453125,0.127685546875
1704913147681048000,5.530048095703125,-0.0582275390625,0.90887451171875,0.1218719482421875
1704913147690988300,5.53998828125,-0.0955352783203125,0.899139404296875,0.1106414794921875
1704913147700927200,5.54992724609375,-0.130706787109375,0.9076995849609375,0.095489501953125
1704913147710866200,5.5598662109375,-0.1893463134765625,0.9224090576171875,0.0890655517578125
1704913147720806100,5.56980615234375,-0.26055908203125,0.9387969970703125,0.09979248046875
1704913147730745300,5.579745361328125,-0.277679443359375,0.9438323974609375,0.1165618896484375
1704913147740684300,5.589684326171875,-0.246612548828125,0.9380645751953125,0.1219329833984375
1704913147750623200,5.599623291015625,-0.212432861328125,0.93853759765625,0.1215362548828125
1704913147760563200,5.609563232421875,-0.1821441650390625,0.9473114013671875,0.1104278564453125
1704913147770502400,5.61950244140625,-0.155029296875,0.95758056640625,0.0993194580078125
1704913147780441300,5.62944140625,-0.1276092529296875,0.9820404052734375,0.0895233154296875
1704913147790381300,5.63938134765625,-0.1044921875,1.0219879150390625,0.0790557861328125
1704913147800320300,5.6493203125,-0.0714569091796875,1.0671844482421875,0.0823822021484375
1704913147810259200,5.65925927734375,-0.0124359130859375,1.1266937255859375,0.1135406494140625
1704913147820198400,5.669198486328125,0.0518341064453125,1.1845245361328125,0.1526947021484375
1704913147830138000,5.67913818359375,0.092254638671875,1.2340240478515625,0.1676177978515625
1704913147840077000,5.6890771484375,0.1184539794921875,1.265045166015625,0.15191650390625
1704913147850016000,5.69901611328125,0.137481689453125,1.277923583984375,0.1273651123046875
1704913147859956200,5.708956298828125,0.121856689453125,1.26422119140625,0.091949462890625
1704913147869895200,5.718895263671875,0.1085357666015625,1.2292938232421875,0.0559234619140625
1704913147879834000,5.728834228515625,0.1239166259765625,1.1904296875,0.028900146484375
1704913147889773000,5.73877294921875,0.1907501220703125,1.16497802734375,0.00250244140625
1704913147899713300,5.74871337890625,0.2815093994140625,1.1686859130859375,-0.026153564453125
1704913147909652200,5.75865234375,0.359039306640625,1.1751556396484375,-0.07073974609375
1704913147919591200,5.768591064453125,0.4032440185546875,1.1684112548828125,-0.1025543212890625
1704913147929531100,5.77853125,0.40496826171875,1.141937255859375,-0.0750732421875
1704913147939470300,5.78847021484375,0.4249114990234375,1.1123199462890625,-0.0165863037109375
1704913147949409300,5.7984091796875,0.498504638671875,1.1181182861328125,0.0653839111328125
1704913147959348200,5.80834814453125,0.4432525634765625,1.192962646484375,0.0605926513671875
1704913147969288200,5.8182880859375,0.39984130859375,1.319061279296875,0.04693603515625
1704913147979227400,5.828227294921875,0.3555908203125,1.44287109375,-0.00360107421875
1704913147989166300,5.838166259765625,0.358673095703125,1.535675048828125,-0.06207275390625
1704913147999106000,5.84810595703125,0.4281005859375,1.554107666015625,-0.101348876953125
1704913148009045200,5.858045166015625,0.4990081787109375,1.5108489990234375,-0.123291015625
1704913148018984200,5.867984130859375,0.580078125,1.3887786865234375,-0.093841552734375
1704913148028923400,5.87792333984375,0.53179931640625,1.21722412109375,-0.0732879638671875
1704913148038863000,5.887863037109375,0.410552978515625,1.070831298828125,-0.0486297607421875
1704913148048802000,5.897802001953125,0.29107666015625,0.966339111328125,-0.018890380859375
1704913148058741200,5.9077412109375,0.165863037109375,0.90020751953125,-0.0025787353515625
1704913148068681200,5.91768115234375,0.03900146484375,0.845489501953125,0.000823974609375
1704913148078620200,5.9276201171875,-0.0811920166015625,0.80029296875,0.0047760009765625
1704913148088559000,5.93755908203125,-0.1927490234375,0.773773193359375,0.009429931640625
1704913148098498000,5.947498046875,-0.2511444091796875,0.758056640625,0.012786865234375
1704913148108438300,5.957438232421875,-0.2725677490234375,0.7543182373046875,0.0048980712890625
1704913148118377200,5.967377197265625,-0.244873046875,0.7601165771484375,-0.0136260986328125
1704913148128316200,5.977316162109375,-0.161224365234375,0.75909423828125,-0.0181732177734375
1704913148138256400,5.98725634765625,-0.0450439453125,0.7596588134765625,0.004638671875
1704913148148195300,5.9971953125,0.1041412353515625,0.7599334716796875,0.059234619140625
1704913148158134300,6.00713427734375,0.2405853271484375,0.771392822265625,0.132354736328125
1704913148168073200,6.0170732421875,0.3052825927734375,0.8024749755859375,0.2068634033203125
1704913148178013400,6.027013427734375,0.2847442626953125,0.840911865234375,0.295013427734375
1704913148187952400,6.036952392578125,0.2000885009765625,0.8755035400390625,0.3603973388671875
1704913148197891300,6.046891357421875,0.1145172119140625,0.89727783203125,0.4087371826171875
1704913148207831000,6.0568310546875,0.101043701171875,0.8911590576171875,0.4557037353515625
1704913148217770000,6.06677001953125,0.1281280517578125,0.8755340576171875,0.4697265625
1704913148227709200,6.076709228515625,0.18182373046875,0.8462677001953125,0.448394775390625
1704913148237648100,6.086648193359375,0.2109527587890625,0.814727783203125,0.3850555419921875
1704913148247588000,6.096588134765625,0.1715850830078125,0.80975341796875,0.285552978515625
1704913148257527000,6.106527099609375,0.0865936279296875,0.8008880615234375,0.197479248046875
1704913148267466200,6.11646630859375,0.0098419189453125,0.789581298828125,0.1255035400390625
1704913148277406200,6.12640625,-0.0513153076171875,0.7957611083984375,0.0747528076171875
1704913148287345200,6.13634521484375,-0.082611083984375,0.8205108642578125,0.0345458984375
1704913148297284000,6.1462841796875,-0.0719451904296875,0.861419677734375,0.0074615478515625
1704913148307223300,6.156223388671875,-0.039093017578125,0.9151153564453125,-0.01165771484375
1704913148317163300,6.166163330078125,0.0079498291015625,0.950714111328125,-0.0219573974609375
1704913148327102200,6.176102294921875,0.071014404296875,0.9525604248046875,-0.0176849365234375
1704913148337041200,6.186041259765625,0.1333770751953125,0.9108428955078125,-0.00421142578125
1704913148346981400,6.1959814453125,0.16851806640625,0.834503173828125,0.024200439453125
1704913148356920300,6.20592041015625,0.1693267822265625,0.7566375732421875,0.04974365234375
1704913148366859300,6.215859375,0.1631317138671875,0.6978607177734375,0.0703277587890625
1704913148376799200,6.22579931640625,0.159912109375,0.6602325439453125,0.082183837890625
1704913148386738200,6.23573828125,0.15789794921875,0.6375885009765625,0.0766143798828125
1704913148396677400,6.245677490234375,0.15960693359375,0.63763427734375,0.055389404296875
1704913148406616300,6.2556162109375,0.164520263671875,0.650665283203125,0.0297698974609375
1704913148416556000,6.26555615234375,0.16998291015625,0.675445556640625,0.0078582763671875
1704913148426495200,6.2754951171875,0.1795501708984375,0.7104949951171875,-0.0108489990234375
1704913148436434200,6.28543408203125,0.19622802734375,0.7322998046875,-0.020965576171875
1704913148446374100,6.2953740234375,0.2064971923828125,0.7516326904296875,0.0080413818359375
1704913148456313000,6.30531298828125,0.212890625,0.769287109375,0.05279541015625
1704913148466252300,6.315252197265625,0.2045440673828125,0.779388427734375,0.138336181640625
1704913148476191200,6.325191162109375,0.17425537109375,0.798004150390625,0.216644287109375
1704913148486131200,6.335131103515625,0.158721923828125,0.8122100830078125,0.3020782470703125
1704913148496070100,6.345070068359375,0.15301513671875,0.8183135986328125,0.3697509765625
1704913148506009000,6.355009033203125,0.13031005859375,0.8251800537109375,0.3886871337890625
1704913148515949300,6.36494921875,0.115631103515625,0.8206939697265625,0.3698883056640625
1704913148525888300,6.37488818359375,0.1302947998046875,0.7893524169921875,0.3132171630859375
1704913148535827200,6.3848271484375,0.1794891357421875,0.7541961669921875,0.2202911376953125
1704913148545766100,6.39476611328125,0.2614593505859375,0.76690673828125,0.1274566650390625
1704913148555706400,6.404706298828125,0.3923797607421875,0.8654327392578125,0.097259521484375
1704913148565645300,6.414645263671875,0.6455535888671875,1.1074066162109375,0.13916015625
1704913148575584300,6.424584228515625,0.8531341552734375,1.4724884033203125,0.278167724609375
1704913148585524200,6.434524169921875,0.84197998046875,1.945404052734375,0.542694091796875
1704913148595463200,6.444463134765625,0.721893310546875,2.3836517333984375,0.6026153564453125
1704913148605402000,6.454402099609375,0.683319091796875,2.6827850341796875,0.2495269775390625
1704913148615342000,6.464342041015625,0.5307159423828125,2.668914794921875,-0.2593536376953125
1704913148625281000,6.474281005859375,0.25469970703125,2.1337890625,-0.532470703125
1704913148635220200,6.48422021484375,0.014617919921875,1.4003448486328125,-0.5529327392578125
1704913148645159200,6.4941591796875,-0.3295745849609375,0.85223388671875,-0.4509429931640625
1704913148655099100,6.50409912109375,-0.56329345703125,0.5796661376953125,-0.34014892578125
1704913148665038000,6.5140380859375,-0.545745849609375,0.465087890625,-0.3015289306640625
1704913148674977300,6.523977294921875,-0.45343017578125,0.4099273681640625,-0.3001861572265625
1704913148684917200,6.533917236328125,-0.3577423095703125,0.4220733642578125,-0.331085205078125
1704913148694856200,6.543856201171875,-0.2853851318359375,0.515625,-0.398956298828125
1704913148704795100,6.553795166015625,-0.235748291015625,0.6921844482421875,-0.509521484375
1704913148714734300,6.563734375,-0.151123046875,0.9125823974609375,-0.608367919921875
1704913148724674300,6.57367431640625,0.143890380859375,1.1663665771484375,-0.6590118408203125
1704913148734613200,6.58361328125,0.5034637451171875,1.402374267578125,-0.6149749755859375
1704913148744552200,6.59355224609375,0.3720550537109375,1.413421630859375,-0.5063323974609375
1704913148754492200,6.6034921875,0.0997161865234375,1.26007080078125,-0.4320831298828125
1704913148764431400,6.613431396484375,0.058441162109375,1.1618804931640625,-0.388275146484375
1704913148774370300,6.623370361328125,0.12518310546875,1.099456787109375,-0.344573974609375
1704913148784310000,6.63331005859375,0.088348388671875,1.0820465087890625,-0.316436767578125
1704913148794250000,6.64325,0.001129150390625,1.0716705322265625,-0.221649169921875
1704913148804189000,6.65318896484375,-0.049224853515625,1.10382080078125,-0.130859375
1704913148814128000,6.663128173828125,-0.0995025634765625,1.191131591796875,-0.0683135986328125
1704913148824068000,6.673068115234375,-0.144561767578125,1.2623138427734375,-0.023651123046875
1704913148834007000,6.683007080078125,-0.1831207275390625,1.3251953125,0.0178375244140625
1704913148843946000,6.692946044921875,-0.1727142333984375,1.3757171630859375,0.072509765625
1704913148853886200,6.70288623046875,-0.1454010009765625,1.3402252197265625,0.1262359619140625
1704913148863825200,6.7128251953125,-0.10888671875,1.253204345703125,0.172760009765625
1704913148873764000,6.72276416015625,-0.0605010986328125,1.122528076171875,0.20703125
1704913148883703000,6.732703125,0.0250396728515625,1.0228271484375,0.2218017578125
1704913148893643300,6.742643310546875,0.1402587890625,0.95440673828125,0.2147064208984375
1704913148903582200,6.752582275390625,0.2525787353515625,0.9134674072265625,0.2065582275390625
1704913148913521200,6.762521240234375,0.3201904296875,0.907440185546875,0.2058868408203125
1704913148923460900,6.7724609375,0.3188018798828125,0.9339599609375,0.221649169921875
1704913148933400000,6.782400146484375,0.250579833984375,0.97430419921875,0.243621826171875
1704913148943339000,6.792339111328125,0.139007568359375,0.994537353515625,0.2667236328125
1704913148953279000,6.802279052734375,0.0077056884765625,0.9715118408203125,0.254150390625
1704913148963218000,6.812218017578125,-0.1120147705078125,0.92486572265625,0.2261505126953125
1704913148973156900,6.822156982421875,-0.149993896484375,0.85186767578125,0.191497802734375
1704913148983096000,6.832095947265625,-0.14447021484375,0.763763427734375,0.121368408203125
1704913148993036000,6.8420361328125,-0.081939697265625,0.68597412109375,0.0354461669921875
1704913149002975000,6.85197509765625,0.013214111328125,0.669647216796875,-0.0323638916015625
1704913149012914000,6.861913818359375,0.0821380615234375,0.723876953125,-0.0847625732421875
1704913149022854100,6.871854248046875,0.1192779541015625,0.7989959716796875,-0.1265716552734375
1704913149032793000,6.88179296875,0.1481781005859375,0.8625640869140625,-0.1551055908203125
1704913149042732000,6.89173193359375,0.1683502197265625,0.918914794921875,-0.1652984619140625
1704913149052671000,6.9016708984375,0.166351318359375,0.985076904296875,-0.1654052734375
1704913149062611200,6.911611083984375,0.1919403076171875,1.04608154296875,-0.16064453125
1704913149072550100,6.921550048828125,0.210052490234375,1.0916748046875,-0.146484375
1704913149082489000,6.931489013671875,0.2068634033203125,1.1188201904296875,-0.125579833984375
1704913149092429000,6.941428955078125,0.1712188720703125,1.118865966796875,-0.102386474609375
1704913149102368000,6.951367919921875,0.10443115234375,1.0789642333984375,-0.080902099609375
1704913149112307000,6.961306884765625,0.062255859375,1.0079498291015625,-0.051422119140625
1704913149122247000,6.971246826171875,0.0911712646484375,0.944122314453125,0.0089874267578125
1704913149132185900,6.981185791015625,0.1074676513671875,0.9168853759765625,0.0774078369140625
1704913149142125000,6.991125,0.0988616943359375,0.9146728515625,0.144989013671875
1704913149152064000,7.00106396484375,0.0692138671875,0.9068145751953125,0.19744873046875
1704913149162004000,7.01100390625,0.057373046875,0.8997955322265625,0.23126220703125
1704913149171943000,7.02094287109375,0.0740509033203125,0.882965087890625,0.2384185791015625
1704913149181882000,7.030882080078125,0.110687255859375,0.8579254150390625,0.2133026123046875
1704913149191822000,7.040822021484375,0.123870849609375,0.8402252197265625,0.1740264892578125
1704913149201761000,7.050760986328125,0.114501953125,0.8369140625,0.14739990234375
1704913149211700000,7.060699951171875,0.1201019287109375,0.833038330078125,0.13232421875
1704913149221640200,7.07064013671875,0.1293487548828125,0.8216400146484375,0.1303253173828125
1704913149231579100,7.0805791015625,0.119232177734375,0.8011932373046875,0.1472015380859375
1704913149241518000,7.09051806640625,0.083709716796875,0.7622528076171875,0.1801300048828125
1704913149251457000,7.10045703125,0.0141143798828125,0.735992431640625,0.2091064453125
1704913149261397200,7.110397216796875,-0.07244873046875,0.70941162109375,0.2146453857421875
1704913149271336200,7.120336181640625,-0.1597442626953125,0.672454833984375,0.199676513671875
1704913149281275100,7.130275146484375,-0.2075347900390625,0.627899169921875,0.1880950927734375
1704913149291214800,7.14021484375,-0.2082366943359375,0.618499755859375,0.1914215087890625
1704913149301154000,7.150154052734375,-0.181396484375,0.6725616455078125,0.1912078857421875
1704913149311093000,7.160093017578125,-0.125823974609375,0.8079833984375,0.160797119140625
1704913149321033000,7.170032958984375,-0.05859375,0.9625396728515625,0.1197509765625
1704913149330972000,7.179971923828125,0.0288543701171875,1.0972747802734375,0.0605010986328125
1704913149340911000,7.1899111328125,0.13421630859375,1.225250244140625,-0.010589599609375
1704913149350850000,7.19985009765625,0.216094970703125,1.3653106689453125,-0.0849151611328125
1704913149360790000,7.2097900390625,0.169036865234375,1.5152130126953125,-0.1823883056640625
1704913149370729000,7.21972900390625,0.0911712646484375,1.6448974609375,-0.2982940673828125
1704913149380668200,7.229668212890625,0.0599822998046875,1.745086669921875,-0.4310455322265625
1704913149390608100,7.239608154296875,0.0932159423828125,1.76141357421875,-0.5733184814453125
1704913149400547000,7.249547119140625,0.1039886474609375,1.662750244140625,-0.703094482421875
1704913149410486000,7.259486083984375,-0.03204345703125,1.5294952392578125,-0.7717132568359375
1704913149420426200,7.26942626953125,-0.1559600830078125,1.3790435791015625,-0.8223724365234375
1704913149430365200,7.279365234375,-0.0849456787109375,1.214263916015625,-0.84393310546875
1704913149440304000,7.28930419921875,0.0187835693359375,1.0815582275390625,-0.845733642578125
1704913149450243000,7.2992431640625,0.0345001220703125,1.003662109375,-0.85260009765625
1704913149460183000,7.30918310546875,0.0019073486328125,0.9592132568359375,-0.8737030029296875
1704913149470122000,7.3191220703125,-0.10968017578125,0.970611572265625,-0.906585693359375
1704913149480061000,7.32906103515625,-0.1613616943359375,1.0358734130859375,-0.8910675048828125
1704913149490001000,7.3390009765625,-0.0861053466796875,1.1824493408203125,-0.7674713134765625
1704913149499940000,7.348940185546875,-0.0357208251953125,1.283782958984375,-0.6419830322265625
1704913149509879000,7.358879150390625,-0.038116455078125,1.3416290283203125,-0.545867919921875
1704913149519819000,7.368819091796875,-0.0556488037109375,1.36083984375,-0.4718475341796875
1704913149529758000,7.378758056640625,-0.0681610107421875,1.3301849365234375,-0.415924072265625
1704913149539697000,7.38869677734375,-0.0807342529296875,1.2339324951171875,-0.3793487548828125
1704913149549636000,7.398635986328125,-0.108551025390625,1.11370849609375,-0.3734588623046875
1704913149559576000,7.408576171875,-0.12408447265625,1.018280029296875,-0.3885955810546875
1704913149569515000,7.418514892578125,-0.10687255859375,0.9511566162109375,-0.3950958251953125
1704913149579454000,7.428453857421875,-0.0653076171875,0.9148406982421875,-0.3888702392578125
1704913149589394200,7.438394287109375,-0.033233642578125,0.903472900390625,-0.372039794921875
1704913149599333000,7.4483330078125,-0.0412750244140625,0.910003662109375,-0.3453216552734375
1704913149609272000,7.45827197265625,-0.0532379150390625,0.9248199462890625,-0.3029632568359375
1704913149619212000,7.4682119140625,-0.0215911865234375,0.9461822509765625,-0.2603302001953125
1704913149629151200,7.478151123046875,-0.0095977783203125,0.9628143310546875,-0.252593994140625
1704913149639090200,7.488090087890625,-0.0186920166015625,0.9600067138671875,-0.2501373291015625
1704913149649029000,7.498029052734375,-0.0231781005859375,0.927001953125,-0.243316650390625
1704913149658969000,7.507968994140625,-0.0224151611328125,0.90386962890625,-0.2298736572265625
1704913149668908000,7.517907958984375,-0.024993896484375,0.8797760009765625,-0.2159271240234375
1704913149678847000,7.527846923828125,-0.0037994384765625,0.8696746826171875,-0.199462890625
1704913149688787000,7.537786865234375,0.0103607177734375,0.8692169189453125,-0.1859893798828125
1704913149698726000,7.547725830078125,-0.0076751708984375,0.8712615966796875,-0.169189453125
1704913149708665000,7.5576650390625,-0.0186309814453125,0.88043212890625,-0.1566619873046875
1704913149718605000,7.56760498046875,-0.02423095703125,0.8902587890625,-0.1504058837890625
1704913149728544000,7.5775439453125,-0.0489654541015625,0.8915557861328125,-0.1604461669921875
1704913149738483000,7.58748291015625,-0.0872802734375,0.899261474609375,-0.1698150634765625
1704913149748422100,7.597422119140625,-0.1197509765625,0.9186248779296875,-0.172149658203125
1704913149758362000,7.607362060546875,-0.1302337646484375,0.919342041015625,-0.162628173828125
1704913149768301000,7.617301025390625,-0.1410369873046875,0.9073333740234375,-0.150238037109375
1704913149778240000,7.627239990234375,-0.1572113037109375,0.882171630859375,-0.137115478515625
1704913149788180200,7.63718017578125,-0.16510009765625,0.8510894775390625,-0.11260986328125
1704913149798119200,7.647119140625,-0.1718902587890625,0.8213653564453125,-0.0753021240234375
1704913149808058000,7.65705810546875,-0.1681976318359375,0.803680419921875,-0.038726806640625
1704913149817997800,7.666997802734375,-0.1675567626953125,0.816162109375,-0.002288818359375
1704913149827937000,7.67693701171875,-0.17822265625,0.85223388671875,0.02520751953125
1704913149837876000,7.6868759765625,-0.198516845703125,0.9044647216796875,0.061492919921875
1704913149847816000,7.69681591796875,-0.2302398681640625,0.96746826171875,0.0851287841796875
1704913149857755000,7.7067548828125,-0.266845703125,1.02227783203125,0.104034423828125
1704913149867694000,7.716694091796875,-0.296630859375,1.070037841796875,0.1212158203125
1704913149877633000,7.726633056640625,-0.307464599609375,1.10308837890625,0.142730712890625
1704913149887573000,7.736572998046875,-0.303924560546875,1.1094970703125,0.16778564453125
1704913149897512000,7.746511962890625,-0.29071044921875,1.095916748046875,0.187713623046875
1704913149907451100,7.756451171875,-0.270538330078125,1.0762481689453125,0.207611083984375
1704913149917390800,7.766390869140625,-0.263916015625,1.0784912109375,0.2161712646484375
1704913149927329800,7.776329833984375,-0.2450408935546875,1.0699310302734375,0.2208099365234375
1704913149937268700,7.786268798828125,-0.2130584716796875,1.0455169677734375,0.2252197265625
1704913149947209000,7.796208984375,-0.19622802734375,1.03948974609375,0.2279052734375
1704913149957148000,7.80614794921875,-0.168365478515625,1.0047760009765625,0.2279205322265625
1704913149967086800,7.8160869140625,-0.1216278076171875,0.9606170654296875,0.239532470703125
1704913149977025800,7.82602587890625,-0.0862579345703125,0.925445556640625,0.2498626708984375
1704913149986966000,7.835966064453125,-0.0796051025390625,0.9066925048828125,0.2591094970703125
1704913149996905000,7.845905029296875,-0.094451904296875,0.90985107421875,0.270660400390625
1704913150006844000,7.855843994140625,-0.1254425048828125,0.92218017578125,0.26641845703125
1704913150016783600,7.86578369140625,-0.1916961669921875,0.9203643798828125,0.2341766357421875
1704913150026722800,7.875722900390625,-0.253143310546875,0.891876220703125,0.195465087890625
1704913150036661800,7.885661865234375,-0.27423095703125,0.8639984130859375,0.172027587890625
1704913150046601700,7.895601806640625,-0.2642822265625,0.8487701416015625,0.161224365234375
1704913150056540700,7.905540771484375,-0.2227020263671875,0.84716796875,0.1669769287109375
1704913150066479600,7.915479736328125,-0.164581298828125,0.8585052490234375,0.17657470703125
1704913150076419800,7.925419921875,-0.0842437744140625,0.8908843994140625,0.190948486328125
1704913150086358800,7.93535888671875,0.0219573974609375,0.934326171875,0.1999359130859375
1704913150096297700,7.945297607421875,0.135009765625,0.9750518798828125,0.1930999755859375
1704913150106236700,7.955236572265625,0.1913604736328125,0.9948272705078125,0.1728363037109375
1704913150116177000,7.965177001953125,0.152435302734375,1.03997802734375,0.156585693359375
1704913150126115800,7.97511572265625,0.01104736328125,1.02691650390625,0.142578125
1704913150136054800,7.9850546875,-0.171661376953125,0.98626708984375,0.1436309814453125
1704913150145995000,7.9949951171875,-0.2982635498046875,0.9258270263671875,0.15753173828125
1704913150155934000,8.004933837890626,-0.3450775146484375,0.8613433837890625,0.169525146484375
1704913150165873000,8.014872802734375,-0.35009765625,0.8048248291015625,0.1858367919921875
1704913150175812600,8.0248125,-0.3109130859375,0.7637939453125,0.2064971923828125
1704913150185751800,8.034751708984375,-0.264129638671875,0.7371978759765625,0.2163848876953125
1704913150195690800,8.044690673828125,-0.23016357421875,0.73565673828125,0.2281036376953125
1704913150205630700,8.054630615234375,-0.17828369140625,0.7589569091796875,0.2500457763671875
1704913150215569700,8.064569580078125,-0.1257476806640625,0.78985595703125,0.26080322265625
1704913150225508600,8.074508544921875,-0.05560302734375,0.841705322265625,0.263946533203125
1704913150235447800,8.08444775390625,0.025360107421875,0.9033050537109375,0.2299346923828125
1704913150245387800,8.0943876953125,0.07366943359375,0.9271697998046875,0.1563873291015625
1704913150255326700,8.10432666015625,0.0195465087890625,0.9029998779296875,0.0234375
1704913150265265700,8.114265625,-0.0511322021484375,0.8691558837890625,-0.12200927734375
1704913150275206000,8.124205810546876,-0.1464385986328125,0.8498992919921875,-0.2320709228515625
1704913150285144800,8.134144775390626,-0.325286865234375,0.8609771728515625,-0.285003662109375
1704913150295083800,8.144083740234375,-0.5224151611328125,0.8659820556640625,-0.2689056396484375
1704913150305024000,8.15402392578125,-0.61737060546875,0.8675994873046875,-0.21929931640625
1704913150314963000,8.163962890625,-0.5097808837890625,0.9137725830078125,-0.120269775390625
1704913150324902000,8.17390185546875,-0.343902587890625,0.944366455078125,-0.0123291015625
1704913150334841900,8.183841796875,-0.27227783203125,0.9792327880859375,0.0583038330078125
1704913150344780800,8.19378076171875,-0.28045654296875,1.0211944580078125,0.1246337890625
1704913150354720000,8.203719970703125,-0.31085205078125,1.0526275634765625,0.2144775390625
1704913150364659000,8.213658935546874,-0.3460845947265625,1.12677001953125,0.300872802734375
1704913150374598700,8.2235986328125,-0.395294189453125,1.2504119873046875,0.3883056640625
1704913150384537600,8.23353759765625,-0.42919921875,1.3511505126953125,0.4968414306640625
1704913150394476800,8.243476806640626,-0.365997314453125,1.4591827392578125,0.6144561767578125
1704913150404416800,8.253416748046876,-0.1176300048828125,1.575897216796875,0.7121734619140625
1704913150414355700,8.263355712890625,0.5590057373046875,1.610137939453125,0.6327667236328125
1704913150424294700,8.273294677734375,1.39984130859375,1.692474365234375,0.4882965087890625
1704913150434235000,8.28323486328125,1.488372802734375,1.91595458984375,0.47613525390625
1704913150444173800,8.293173828125,0.9812774658203125,2.0646820068359375,0.49029541015625
1704913150454112800,8.30311279296875,0.3318328857421875,1.8805389404296875,0.3875732421875
1704913150464053000,8.313052978515625,0.0045318603515625,1.6260986328125,0.352874755859375
1704913150473992000,8.322991943359375,-0.04852294921875,1.49853515625,0.38446044921875
1704913150483931000,8.332930908203124,-0.024993896484375,1.44598388671875,0.38885498046875
1704913150493870800,8.342870849609374,-0.0079498291015625,1.4380035400390625,0.3792877197265625
1704913150503809800,8.352809814453124,-0.0709381103515625,1.4635467529296875,0.3873748779296875
1704913150513749000,8.3627490234375,-0.19793701171875,1.4940948486328125,0.3766632080078125
1704913150523688000,8.37268798828125,-0.3253173828125,1.533203125,0.33734130859375
1704913150533627600,8.382627685546876,-0.455322265625,1.58331298828125,0.253875732421875
1704913150543566600,8.392566650390625,-0.6317596435546875,1.647705078125,0.12286376953125
1704913150553505800,8.402505859375,-0.758026123046875,1.67938232421875,-0.0178375244140625
1704913150563445800,8.41244580078125,-0.6859283447265625,1.6183929443359375,-0.149749755859375
1704913150573384700,8.422384765625,-0.3289947509765625,1.52691650390625,-0.280609130859375
1704913150583323600,8.43232373046875,0.4105682373046875,1.5164947509765625,-0.4608154296875
1704913150593263900,8.442263916015625,0.8183441162109375,1.5276947021484375,-0.603729248046875
1704913150603202800,8.452202880859375,0.7115020751953125,1.4596099853515625,-0.664276123046875
1704913150613141800,8.462141845703124,0.373046875,1.347320556640625,-0.6854400634765625
1704913150623081700,8.472081787109374,0.0021209716796875,1.2001953125,-0.632110595703125
1704913150633021000,8.48202099609375,-0.0554656982421875,1.0753173828125,-0.392120361328125
1704913150642960000,8.4919599609375,-0.01055908203125,1.013763427734375,-0.0728759765625
1704913150652899800,8.50189990234375,-0.0252685546875,1.0201416015625,0.197113037109375
1704913150662838800,8.5118388671875,-0.0623779296875,1.01031494140625,0.436187744140625
1704913150672778000,8.521778076171875,-0.0941925048828125,0.9689788818359375,0.6162109375
1704913150682717000,8.531717041015625,-0.0925140380859375,0.8880767822265625,0.7502593994140625
1704913150692656600,8.54165673828125,-0.0985870361328125,0.7711029052734375,0.8145294189453125
1704913150702595600,8.551595703125,-0.1322479248046875,0.6513824462890625,0.747802734375
1704913150712534800,8.56153466796875,-0.219940185546875,0.5311431884765625,0.560821533203125
1704913150722474800,8.571474853515625,-0.2562408447265625,0.45953369140625,0.36505126953125
1704913150732413700,8.58141357421875,-0.24176025390625,0.4376068115234375,0.2085113525390625
1704913150742352600,8.5913525390625,-0.21533203125,0.3879241943359375,0.0505523681640625
1704913150752292900,8.60129296875,-0.2438201904296875,0.392822265625,-0.0844573974609375
1704913150762231800,8.611231689453126,-0.199951171875,0.3346099853515625,-0.22515869140625
1704913150772170800,8.621170654296876,-0.1795196533203125,0.2725677490234375,-0.36334228515625
1704913150782110700,8.63111083984375,-0.140869140625,0.2459259033203125,-0.4345550537109375
1704913150792050000,8.6410498046875,-0.042022705078125,0.2085113525390625,-0.4667816162109375
1704913150801988900,8.65098876953125,0.0557098388671875,0.1936798095703125,-0.442352294921875
1704913150811927800,8.660927734375,0.138671875,0.20721435546875,-0.36102294921875
1704913150821867800,8.67086767578125,0.171173095703125,0.25250244140625,-0.2545166015625
1704913150831807000,8.680806884765625,0.1879730224609375,0.2889404296875,-0.193389892578125
1704913150841746000,8.690745849609375,0.1882781982421875,0.3252410888671875,-0.17864990234375
1704913150851686000,8.700685791015625,0.2361297607421875,0.3635406494140625,-0.1927642822265625
1704913150861624800,8.710624755859374,0.3190155029296875,0.41387939453125,-0.2477264404296875
1704913150871564000,8.72056396484375,0.4826507568359375,0.4803924560546875,-0.343658447265625
1704913150881503700,8.730503662109374,0.624847412109375,0.5636749267578125,-0.44317626953125
1704913150891442700,8.740442626953126,0.618560791015625,0.63775634765625,-0.5036773681640625
1704913150901381600,8.750381591796875,0.5598602294921875,0.647308349609375,-0.4737548828125
1704913150911321900,8.76032177734375,0.5089569091796875,0.5841827392578125,-0.34442138671875
1704913150921260800,8.7702607421875,0.451873779296875,0.46649169921875,-0.2128143310546875
1704913150931199700,8.78019970703125,0.38494873046875,0.35357666015625,-0.1370697021484375
1704913150941139700,8.7901396484375,0.3107757568359375,0.2813720703125,-0.126739501953125
1704913150951079000,8.800078857421875,0.2020416259765625,0.2445526123046875,-0.18109130859375
1704913150961017900,8.810017822265625,0.1353912353515625,0.237640380859375,-0.2877197265625
1704913150970956800,8.819956787109374,0.17425537109375,0.273834228515625,-0.39263916015625
1704913150980896800,8.829896728515624,0.430816650390625,0.4021148681640625,-0.487762451171875
1704913150990836000,8.8398359375,0.7907562255859375,0.648956298828125,-0.483856201171875
1704913151000775000,8.84977490234375,0.938323974609375,0.9575958251953125,-0.3676910400390625
1704913151010715000,8.85971484375,0.806732177734375,1.316131591796875,-0.1575927734375
1704913151020653800,8.86965380859375,0.44635009765625,1.752044677734375,0.098419189453125
1704913151030592800,8.8795927734375,0.1461181640625,2.1137847900390625,0.2348175048828125
1704913151040532700,8.88953271484375,0.098175048828125,2.3057098388671875,0.0514984130859375
1704913151050471400,8.899471435546875,0.0700531005859375,2.3575592041015625,-0.295196533203125
1704913151060410600,8.90941064453125,-0.02392578125,2.2044219970703125,-0.40118408203125
1704913151070350600,8.9193505859375,-0.1684417724609375,1.8089447021484375,-0.238861083984375
1704913151080289500,8.92928955078125,-0.067901611328125,1.37103271484375,-0.098785400390625
1704913151090228500,8.939228515625,0.2522735595703125,1.1302642822265625,-0.0307464599609375
1704913151100168700,8.949168701171875,0.406707763671875,1.1412200927734375,0.03240966796875
1704913151110107600,8.959107666015624,0.2216033935546875,1.278533935546875,0.0706634521484375
1704913151120046600,8.969046630859374,-0.08111572265625,1.3835601806640625,0.0892486572265625
1704913151129985500,8.978985595703126,-0.31634521484375,1.4293670654296875,0.1106109619140625
1704913151139925500,8.988925537109376,-0.353912353515625,1.4194488525390625,0.15850830078125
1704913151149864700,8.99886474609375,-0.3062591552734375,1.39447021484375,0.2029571533203125
1704913151159803600,9.0088037109375,-0.247039794921875,1.3500213623046875,0.22125244140625
1704913151169743600,9.01874365234375,-0.1928863525390625,1.302734375,0.232269287109375
1704913151179682600,9.0286826171875,-0.148345947265625,1.2477874755859375,0.2325439453125
1704913151189621800,9.038621826171875,-0.10198974609375,1.1784210205078125,0.22314453125
1704913151199561500,9.0485615234375,-0.033782958984375,1.127105712890625,0.20574951171875
1704913151209500700,9.058500732421875,0.071258544921875,1.101409912109375,0.1900787353515625
1704913151219439600,9.068439697265624,0.2019805908203125,1.109649658203125,0.166046142578125
1704913151229379600,9.078379638671874,0.3086395263671875,1.1604461669921875,0.11553955078125
1704913151239318500,9.088318603515624,0.335113525390625,1.2368927001953125,0.0249786376953125
1704913151249257500,9.098257568359376,0.283843994140625,1.3188018798828125,-0.070220947265625
1704913151259197400,9.108197509765626,0.204559326171875,1.36407470703125,-0.1450653076171875
1704913151269136600,9.11813671875,0.1770172119140625,1.3489532470703125,-0.1946563720703125
1704913151279075600,9.12807568359375,0.197662353515625,1.28521728515625,-0.203857421875
1704913151289015600,9.138015625,0.159454345703125,1.180206298828125,-0.19683837890625
1704913151298954500,9.14795458984375,0.1011962890625,1.049072265625,-0.1355743408203125
1704913151308893700,9.157893798828125,0.048004150390625,0.915740966796875,-0.0496826171875
1704913151318832600,9.16783251953125,-0.0080108642578125,0.819976806640625,0.0391693115234375
1704913151328772600,9.177772705078125,-0.0578460693359375,0.7501678466796875,0.1109619140625
1704913151338711600,9.187711669921875,-0.0863189697265625,0.7015838623046875,0.16912841796875
1704913151348650800,9.197650634765624,-0.1082305908203125,0.669586181640625,0.215301513671875
1704913151358590700,9.2075908203125,-0.1181182861328125,0.6502685546875,0.2506561279296875
1704913151368529700,9.21752978515625,-0.119537353515625,0.6394500732421875,0.280487060546875
1704913151378468600,9.227468505859376,-0.108856201171875,0.6365814208984375,0.290435791015625
1704913151388408600,9.23740869140625,-0.047271728515625,0.65106201171875,0.294891357421875
1704913151398347500,9.247347412109375,0.071136474609375,0.69464111328125,0.284149169921875
1704913151408286500,9.257286376953125,0.2122802734375,0.77349853515625,0.2582855224609375
1704913151418226400,9.267226318359375,0.2831878662109375,0.8817901611328125,0.2146759033203125
1704913151428165600,9.27716552734375,0.2722015380859375,0.98065185546875,0.1731414794921875
1704913151438104600,9.2871044921875,0.1760406494140625,1.0440673828125,0.1285552978515625
1704913151448044500,9.29704443359375,0.0585784912109375,1.0467071533203125,0.0914459228515625
1704913151457983500,9.3069833984375,0.000091552734375,1.0022430419921875,0.0721588134765625
1704913151467922700,9.316922607421875,-0.0233612060546875,0.94036865234375,0.0508575439453125
1704913151477862700,9.326862548828124,-0.016754150390625,0.894012451171875,0.0315704345703125
1704913151487801600,9.336801513671874,0.015411376953125,0.87237548828125,0.0221405029296875
1704913151497740500,9.346740478515626,0.0377349853515625,0.860992431640625,0.016632080078125
1704913151507680800,9.3566806640625,0.0236663818359375,0.84967041015625,0.009765625
1704913151517619700,9.36661962890625,0.028778076171875,0.844451904296875,0.0103912353515625
1704913151527558700,9.37655859375,0.059326171875,0.8542938232421875,0.025543212890625
1704913151537497600,9.38649755859375,0.1195526123046875,0.8871307373046875,0.0599365234375
1704913151547437600,9.3964375,0.2008819580078125,0.9336700439453125,0.1061859130859375
1704913151557376500,9.40637646484375,0.2555084228515625,0.996246337890625,0.1483154296875
1704913151567315500,9.4163154296875,0.2795562744140625,1.0478668212890625,0.169891357421875
1704913151577255400,9.42625537109375,0.3240966796875,1.089935302734375,0.175384521484375
1704913151587194600,9.436194580078125,0.3720550537109375,1.1116790771484375,0.167236328125
1704913151597133600,9.446133544921874,0.362457275390625,1.11102294921875,0.145294189453125
1704913151607073500,9.456073486328124,0.259185791015625,1.1109161376953125,0.10833740234375
1704913151617012500,9.466012451171874,0.10089111328125,1.0931243896484375,0.056060791015625
1704913151626951700,9.47595166015625,-0.058135986328125,1.051361083984375,0.0092926025390625
1704913151636891600,9.4858916015625,-0.1734619140625,1.0054168701171875,-0.015289306640625
1704913151646830600,9.49583056640625,-0.23388671875,0.9630889892578125,-0.0297088623046875
1704913151656769500,9.50576953125,-0.2297821044921875,0.9161529541015625,-0.035247802734375
1704913151666709800,9.515709716796875,-0.20684814453125,0.8648834228515625,-0.03668212890625
1704913151676648700,9.525648681640625,-0.1767730712890625,0.82830810546875,-0.0323028564453125
1704913151686587600,9.535587646484375,-0.164642333984375,0.8361968994140625,-0.0280303955078125
1704913151696527400,9.54552734375,-0.16973876953125,0.8912506103515625,-0.0216827392578125
1704913151706466600,9.555466552734375,-0.191314697265625,0.9980621337890625,-0.0090789794921875
1704913151716405500,9.565405517578125,-0.2357330322265625,1.124114990234375,0.0059356689453125
1704913151726345500,9.575345458984375,-0.279083251953125,1.203277587890625,0.02655029296875
1704913151736284400,9.585284423828124,-0.31439208984375,1.24114990234375,0.0513763427734375
1704913151746223600,9.5952236328125,-0.3223114013671875,1.2217254638671875,0.0900115966796875
1704913151756163600,9.60516357421875,-0.30487060546875,1.1732025146484375,0.1315765380859375
1704913151766102500,9.6151025390625,-0.2832183837890625,1.142852783203125,0.173431396484375
1704913151776041500,9.62504150390625,-0.267181396484375,1.1316986083984375,0.2104339599609375
1704913151785980700,9.634980712890625,-0.24945068359375,1.125885009765625,0.2502288818359375
1704913151795920600,9.644920654296875,-0.21295166015625,1.1151885986328125,0.2812347412109375
1704913151805859600,9.654859619140625,-0.079437255859375,1.1083526611328125,0.2668914794921875
1704913151815798500,9.664798583984375,0.1478118896484375,1.1237945556640625,0.2423553466796875
1704913151825738800,9.67473876953125,0.3735504150390625,1.1688690185546875,0.2884063720703125
1704913151835677700,9.684677734375,0.5132293701171875,1.1990814208984375,0.32025146484375
1704913151845616600,9.69461669921875,0.4846038818359375,1.2328948974609375,0.2900390625
1704913151855556600,9.704556640625,0.3370513916015625,1.2811126708984375,0.25823974609375
1704913151865495800,9.714495849609374,0.15753173828125,1.28155517578125,0.2542877197265625
1704913151875434800,9.724434814453126,-0.0209503173828125,1.1986236572265625,0.2221527099609375
1704913151885374500,9.73437451171875,-0.175262451171875,1.071685791015625,0.1531219482421875
1704913151895313400,9.7443134765625,-0.2889862060546875,0.9686431884765625,0.0802459716796875
1704913151905252600,9.754252685546875,-0.34600830078125,0.89544677734375,-0.0003204345703125
1704913151915192600,9.764192626953125,-0.2790679931640625,0.8448944091796875,-0.0716094970703125
1704913151925131500,9.774131591796875,-0.058258056640625,0.8399200439453125,-0.1162567138671875
1704913151935070500,9.784070556640625,0.1448822021484375,0.8590545654296875,-0.16143798828125
1704913151945010700,9.7940107421875,0.2142333984375,0.9014129638671875,-0.193450927734375
1704913151954949600,9.80394970703125,0.158111572265625,0.951873779296875,-0.1868133544921875
1704913151964888600,9.813888671875,0.0714111328125,0.979583740234375,-0.1563262939453125
1704913151974828500,9.82382861328125,0.0525665283203125,0.9771270751953125,-0.099761962890625
1704913151984767700,9.833767822265624,0.0767974853515625,0.9705352783203125,-0.0283203125
1704913151994706700,9.843706787109374,0.082733154296875,0.961517333984375,0.0448150634765625
1704913152004646700,9.853646728515624,0.06884765625,0.94378662109375,0.1021881103515625
1704913152014585600,9.863585693359376,0.0533905029296875,0.91302490234375,0.1480560302734375
1704913152024524800,9.87352490234375,0.0734405517578125,0.8716583251953125,0.1740875244140625
1704913152034463700,9.883463623046875,0.108612060546875,0.839935302734375,0.17034912109375
1704913152044403500,9.893403564453125,0.128753662109375,0.8329010009765625,0.16827392578125
1704913152054342400,9.90334228515625,0.1223297119140625,0.8498382568359375,0.1565704345703125
1704913152064281600,9.913281494140625,0.09588623046875,0.877410888671875,0.139373779296875
1704913152074221600,9.9232216796875,0.0400848388671875,0.9038848876953125,0.130645751953125
1704913152084160500,9.933160400390625,-0.007720947265625,0.9188995361328125,0.11444091796875
1704913152094099500,9.943099365234374,-0.0343780517578125,0.92669677734375,0.0932464599609375
1704913152104039700,9.953039794921875,-0.0167236328125,0.9433441162109375,0.0771026611328125
1704913152113978600,9.962978515625,0.0186309814453125,0.9666290283203125,0.062591552734375
1704913152123917600,9.97291748046875,0.0093841552734375,0.9956817626953125,0.0670928955078125
1704913152133857500,9.982857421875,-0.01513671875,1.00323486328125,0.0780181884765625
1704913152143796700,9.992796630859376,-0.039276123046875,0.9973297119140625,0.0968017578125
1704913152153735700,10.002735595703125,-0.0538177490234375,0.9839630126953125,0.131439208984375
1704913152163675600,10.012675537109375,-0.0774078369140625,0.96612548828125,0.159088134765625
1704913152173614600,10.022614501953125,-0.1226654052734375,0.9443359375,0.1844482421875
1704913152183553500,10.032553466796875,-0.1889190673828125,0.9242095947265625,0.2109222412109375
1704913152193493200,10.0424931640625,-0.2503204345703125,0.898284912109375,0.2258148193359375
1704913152203432400,10.052432373046875,-0.285430908203125,0.8672332763671875,0.239349365234375
1704913152213371400,10.062371337890625,-0.3149566650390625,0.8451690673828125,0.2492218017578125
1704913152223311400,10.072311279296875,-0.3189544677734375,0.8318634033203125,0.2613983154296875
1704913152233250300,10.082250244140624,-0.30572509765625,0.8341827392578125,0.2778778076171875
1704913152243189500,10.092189453125,-0.29376220703125,0.853485107421875,0.3001556396484375
1704913152253129500,10.10212939453125,-0.2835845947265625,0.8812713623046875,0.3086090087890625
1704913152263068400,10.112068359375,-0.288055419921875,0.908203125,0.2963409423828125
1704913152273007400,10.12200732421875,-0.2740478515625,0.9305877685546875,0.2718353271484375
1704913152282947600,10.131947509765626,-0.247589111328125,0.9453125,0.230621337890625
1704913152292886500,10.141886474609375,-0.2027130126953125,0.9634552001953125,0.16583251953125
1704913152302825500,10.151825439453125,-0.140716552734375,1.0004119873046875,0.08807373046875
1704913152312765400,10.161765380859375,-0.0589599609375,1.0543670654296875,-0.0171356201171875
1704913152322704600,10.17170458984375,0.0261688232421875,1.1436767578125,-0.1317596435546875
1704913152332643600,10.1816435546875,0.227020263671875,1.2841033935546875,-0.225799560546875
1704913152342583300,10.191583251953125,0.5002288818359375,1.452728271484375,-0.31134033203125
1704913152352522500,10.2015224609375,0.6206512451171875,1.6085968017578125,-0.4082489013671875
1704913152362461400,10.21146142578125,0.6944122314453125,1.7722015380859375,-0.547821044921875
1704913152372400600,10.221400634765626,0.7248077392578125,1.8638763427734375,-0.6914215087890625
1704913152382340400,10.23134033203125,0.6837615966796875,1.875946044921875,-0.815826416015625
1704913152392279300,10.241279296875,0.5497283935546875,1.79571533203125,-0.8737945556640625
1704913152402218500,10.251218505859375,0.471405029296875,1.658905029296875,-0.893890380859375
1704913152412158500,10.261158447265625,0.327850341796875,1.4674530029296875,-0.888763427734375
1704913152422097400,10.271097412109375,0.1851348876953125,1.2763824462890625,-0.845733642578125
1704913152432036400,10.281036376953125,0.152801513671875,1.0946044921875,-0.79107666015625
1704913152441976600,10.2909765625,0.2351837158203125,0.948638916015625,-0.66217041015625
1704913152451915500,10.30091552734375,0.260467529296875,0.8564910888671875,-0.41400146484375
1704913152461854500,10.3108544921875,0.27862548828125,0.7635040283203125,-0.1611175537109375
1704913152471794400,10.32079443359375,0.29541015625,0.6757965087890625,0.056121826171875
1704913152481733600,10.330733642578124,0.3138580322265625,0.6374664306640625,0.202789306640625
1704913152491672600,10.340672607421874,0.31884765625,0.6705474853515625,0.277496337890625
1704913152501612500,10.350612548828124,0.2145538330078125,0.7422332763671875,0.2626495361328125
1704913152511551500,10.360551513671876,0.051025390625,0.7870941162109375,0.1739349365234375
1704913152521490700,10.37049072265625,-0.037750244140625,0.8082122802734375,0.1182708740234375
1704913152531430400,10.380430419921876,-0.0463409423828125,0.8115081787109375,0.0976104736328125
1704913152541369300,10.390369384765625,0.022247314453125,0.8204803466796875,0.0921478271484375
1704913152551308300,10.400308349609375,0.1686553955078125,0.8697662353515625,0.091339111328125
1704913152561248500,10.41024853515625,0.2717437744140625,0.9718475341796875,0.092681884765625
1704913152571187500,10.4201875,0.3578643798828125,1.085418701171875,0.087371826171875
1704913152581126400,10.43012646484375,0.4624176025390625,1.2025146484375,0.08111572265625
1704913152591066400,10.44006640625,0.5657958984375,1.289581298828125,0.063262939453125
1704913152601005600,10.450005615234375,0.6203765869140625,1.296783447265625,0.043121337890625
1704913152610944500,10.459944580078124,0.598541259765625,1.2283172607421875,0.0093841552734375
1704913152620884500,10.469884521484374,0.4918670654296875,1.097869873046875,-0.0189666748046875
1704913152630823400,10.479823486328126,0.340057373046875,0.9402313232421875,-0.0259246826171875
1704913152640762600,10.4897626953125,0.20318603515625,0.7763671875,-0.00823974609375
1704913152650702600,10.49970263671875,0.12860107421875,0.63531494140625,0.010833740234375
1704913152660641500,10.5096416015625,0.1281890869140625,0.5355377197265625,0.033660888671875
1704913152670580500,10.51958056640625,0.147064208984375,0.479095458984375,0.052947998046875
1704913152680520400,10.5295205078125,0.161102294921875,0.45361328125,0.067596435546875
1704913152690459400,10.53945947265625,0.172515869140625,0.44415283203125,0.0842132568359375
1704913152700398300,10.5493984375,0.1622772216796875,0.4502716064453125,0.0804290771484375
1704913152710338300,10.55933837890625,0.138275146484375,0.4641876220703125,0.0749664306640625
1704913152720277500,10.569277587890625,0.1338348388671875,0.4897308349609375,0.1265716552734375
1704913152730216400,10.579216552734374,0.0975494384765625,0.533966064453125,0.1901702880859375
1704913152740156400,10.589156494140624,0.057403564453125,0.60418701171875,0.2552032470703125
1704913152750095400,10.599095458984374,0.0374908447265625,0.7055206298828125,0.3080596923828125
1704913152760034600,10.60903466796875,0.0777740478515625,0.81494140625,0.356353759765625
1704913152769974500,10.618974609375,0.137664794921875,0.9206390380859375,0.372589111328125
1704913152779913500,10.62891357421875,0.2157745361328125,1.0133514404296875,0.382110595703125
1704913152789852400,10.638852294921875,0.256378173828125,1.0709991455078125,0.366455078125
1704913152799792600,10.648792724609375,0.20648193359375,1.0731201171875,0.29437255859375
1704913152809731600,10.658731689453125,0.1085968017578125,1.0232696533203125,0.1869049072265625
1704913152819670500,10.66867041015625,0.043731689453125,0.939971923828125,0.0872039794921875
1704913152829610200,10.6786103515625,0.01544189453125,0.844512939453125,-0.0243988037109375
1704913152839549400,10.688549560546875,0.0204315185546875,0.766082763671875,-0.137115478515625
1704913152849488400,10.69848828125,0.057403564453125,0.69000244140625,-0.235626220703125
1704913152859427300,10.70842724609375,0.1036834716796875,0.624420166015625,-0.3153076171875
1704913152869367300,10.7183671875,0.132598876953125,0.585235595703125,-0.358184814453125
1704913152879306500,10.728306396484374,0.18280029296875,0.563629150390625,-0.3807220458984375
1704913152889245400,10.738245361328126,0.2627716064453125,0.5525665283203125,-0.3990936279296875
1704913152899185400,10.748185302734376,0.267333984375,0.5716705322265625,-0.3522186279296875
1704913152909124400,10.758124267578125,0.2863006591796875,0.6061248779296875,-0.2584075927734375
1704913152919063600,10.7680634765625,0.335235595703125,0.66436767578125,-0.1294097900390625
1704913152929003500,10.77800341796875,0.337860107421875,0.74017333984375,-0.002471923828125
1704913152938942500,10.7879423828125,0.251983642578125,0.8273468017578125,0.101470947265625
1704913152948881400,10.79788134765625,0.1759490966796875,0.9012908935546875,0.21417236328125
1704913152958821600,10.807821533203125,0.150421142578125,0.9252777099609375,0.335052490234375
1704913152968760600,10.817760498046875,0.13970947265625,0.920318603515625,0.452178955078125
1704913152978699500,10.827699462890624,0.171630859375,0.861724853515625,0.535614013671875
1704913152988639200,10.83763916015625,0.2487945556640625,0.7433929443359375,0.5468902587890625
1704913152998578400,10.847578369140624,0.34393310546875,0.6161346435546875,0.49322509765625
1704913153008517400,10.857517333984376,0.4101104736328125,0.5308685302734375,0.3525238037109375
1704913153018457300,10.867457275390626,0.508056640625,0.5443267822265625,0.252044677734375
1704913153028396300,10.877396240234376,0.5077362060546875,0.72454833984375,0.214630126953125
1704913153038335500,10.88733544921875,0.2052154541015625,1.0457305908203125,0.149017333984375
1704913153048275500,10.897275390625,0.0420989990234375,1.4812164306640625,0.0070037841796875
1704913153058214400,10.90721435546875,0.25286865234375,2.1815948486328125,-0.29376220703125
1704913153068153300,10.9171533203125,0.525238037109375,3.1088409423828125,-0.7919769287109375
1704913153078093600,10.927093505859375,0.8768310546875,3.9783477783203125,-1.38629150390625
1704913153088032500,10.937032470703125,0.7340545654296875,3.6986236572265625,-1.62017822265625
1704913153097971500,10.946971435546875,0.005706787109375,2.0477752685546875,-1.233428955078125
1704913153107911400,10.956911376953125,-0.33251953125,0.975616455078125,-0.8588409423828125
1704913153117850600,10.9668505859375,-0.40484619140625,0.4847412109375,-0.6406097412109375
1704913153127789600,10.97678955078125,-0.252227783203125,0.1603546142578125,-0.517486572265625
1704913153137729300,10.986729248046874,-0.1444549560546875,-0.012420654296875,-0.4742279052734375
1704913153147668500,10.99666845703125,-0.31585693359375,0.015289306640625,-0.458892822265625
1704913153157607700,11.006607666015626,-0.411529541015625,0.221893310546875,-0.4068756103515625
1704913153167547400,11.01654736328125,-0.319976806640625,0.50537109375,-0.327789306640625
1704913153177486300,11.026486328125,-0.3647308349609375,0.8198089599609375,-0.275787353515625
1704913153187425300,11.03642529296875,-0.47039794921875,1.1516265869140625,-0.2399444580078125
1704913153197365500,11.046365478515625,-0.4605560302734375,1.501953125,-0.200225830078125
1704913153207304400,11.056304443359375,-0.3101654052734375,1.777191162109375,-0.112152099609375
1704913153217243400,11.066243408203125,-0.020477294921875,1.84063720703125,0.0886077880859375
1704913153227183600,11.07618359375,0.3060150146484375,1.779449462890625,0.325775146484375
1704913153237122600,11.08612255859375,0.432647705078125,1.621734619140625,0.4337921142578125
1704913153247061500,11.0960615234375,0.3752593994140625,1.4311065673828125,0.443695068359375
1704913153257001500,11.10600146484375,0.2781524658203125,1.2589569091796875,0.4033660888671875
1704913153266940400,11.1159404296875,0.2041473388671875,1.125457763671875,0.340423583984375
1704913153276879600,11.125879638671876,0.1456451416015625,1.0199127197265625,0.292327880859375
1704913153286819600,11.135819580078126,0.0969696044921875,0.96051025390625,0.2630157470703125
1704913153296758500,11.145758544921875,0.0695953369140625,0.9267120361328125,0.2509765625
1704913153306697500,11.155697509765625,0.0553131103515625,0.9124908447265625,0.2509765625
1704913153316638000,11.165637939453125,0.048187255859375,0.914398193359375,0.2596588134765625
1704913153326577000,11.175576904296875,0.0503387451171875,0.9255218505859375,0.266448974609375
1704913153336515800,11.185515869140625,0.067535400390625,0.9221649169921875,0.2606048583984375
1704913153346455800,11.195455810546875,0.0988922119140625,0.91290283203125,0.221649169921875
1704913153356395000,11.20539501953125,0.102569580078125,0.9131622314453125,0.1484527587890625
1704913153366334000,11.215333984375,0.077239990234375,0.9364471435546875,0.07830810546875
1704913153376274000,11.22527392578125,0.0534515380859375,0.9595489501953125,0.004791259765625
1704913153386212900,11.235212890625,0.04132080078125,0.9731292724609375,-0.074432373046875
1704913153396152000,11.245152099609374,0.0338592529296875,0.973480224609375,-0.146270751953125
1704913153406092000,11.255092041015626,0.037200927734375,0.95343017578125,-0.207763671875
1704913153416031000,11.265031005859376,0.0574951171875,0.9193115234375,-0.254669189453125
1704913153425970000,11.274969970703125,0.0790863037109375,0.8795318603515625,-0.275177001953125
1704913153435910000,11.284909912109375,0.09405517578125,0.833709716796875,-0.28289794921875
1704913153445848800,11.294848876953125,0.09185791015625,0.788238525390625,-0.28369140625
1704913153455787800,11.304787841796875,0.061737060546875,0.7500152587890625,-0.26934814453125
1704913153465727700,11.314727783203125,0.0388336181640625,0.7253265380859375,-0.2410736083984375
1704913153475667000,11.3246669921875,0.0472564697265625,0.7210845947265625,-0.1963653564453125
1704913153485606000,11.33460595703125,0.1612548828125,0.7196502685546875,-0.1608428955078125
1704913153495545900,11.3445458984375,0.3203277587890625,0.7254791259765625,-0.1455535888671875
1704913153505484800,11.35448486328125,0.39111328125,0.7403717041015625,-0.1286773681640625
1704913153515424000,11.364424072265624,0.3489837646484375,0.7550811767578125,-0.11712646484375
1704913153525364000,11.374364013671874,0.2610015869140625,0.767364501953125,-0.1068878173828125
1704913153535303000,11.384302978515626,0.1939239501953125,0.795440673828125,-0.1037139892578125
1704913153545241900,11.394241943359376,0.1648101806640625,0.8500823974609375,-0.1099395751953125
1704913153555182000,11.40418212890625,0.1461334228515625,0.9444427490234375,-0.1220855712890625
1704913153565121000,11.41412109375,0.0892486572265625,1.066986083984375,-0.1436920166015625
1704913153575060000,11.42406005859375,-0.013885498046875,1.1806793212890625,-0.1674652099609375
1704913153585000000,11.434,-0.087493896484375,1.261627197265625,-0.1791534423828125
1704913153594939000,11.44393896484375,-0.117645263671875,1.2852630615234375,-0.1663818359375
1704913153604877800,11.4538779296875,-0.1258087158203125,1.247589111328125,-0.1284942626953125
1704913153614817800,11.46381787109375,-0.1191558837890625,1.158660888671875,-0.0736846923828125
1704913153624756700,11.4737568359375,-0.1295166015625,1.040679931640625,-0.0172271728515625
1704913153634696000,11.483696044921874,-0.151214599609375,0.9373321533203125,0.0347442626953125
1704913153644636000,11.493635986328124,-0.1708831787109375,0.8853302001953125,0.0821075439453125
1704913153654574800,11.503574951171874,-0.188140869140625,0.9008026123046875,0.116546630859375
1704913153664513800,11.513513671875,-0.2103271484375,0.9849853515625,0.14263916015625
1704913153674454000,11.5234541015625,-0.2383575439453125,1.11529541015625,0.1640777587890625
1704913153684393000,11.53339306640625,-0.2654266357421875,1.2453155517578125,0.181610107421875
1704913153694332000,11.543331787109375,-0.272430419921875,1.350341796875,0.1911773681640625
1704913153704272100,11.553272216796875,-0.25152587890625,1.4061126708984375,0.1951141357421875
1704913153714211000,11.563211181640625,-0.193389892578125,1.40167236328125,0.192962646484375
1704913153724150000,11.57314990234375,-0.0973052978515625,1.3355255126953125,0.1670989990234375
1704913153734089700,11.58308984375,0.02264404296875,1.2308197021484375,0.1121673583984375
1704913153744029000,11.59302880859375,0.117156982421875,1.1649932861328125,0.0668182373046875
1704913153753968000,11.602968017578124,0.179046630859375,1.1242523193359375,0.021728515625
1704913153763907800,11.612907958984374,0.21405029296875,1.0992431640625,-0.000640869140625
1704913153773846800,11.6228466796875,0.2074737548828125,1.0822296142578125,-0.01654052734375
1704913153783785700,11.63278564453125,0.1251068115234375,1.0738983154296875,-0.04278564453125
1704913153793726000,11.642725830078126,0.006134033203125,1.0923919677734375,-0.061859130859375
1704913153803665000,11.652664794921876,-0.101715087890625,1.1220550537109375,-0.070770263671875
1704913153813603800,11.662603759765625,-0.1919403076171875,1.1402435302734375,-0.0813446044921875
1704913153823544000,11.6725439453125,-0.2535552978515625,1.1258392333984375,-0.08984375
1704913153833483000,11.68248291015625,-0.286865234375,1.0858154296875,-0.09332275390625
1704913153843422000,11.692421875,-0.2941131591796875,1.03375244140625,-0.093414306640625
1704913153853362000,11.70236181640625,-0.294921875,0.9844970703125,-0.0921173095703125
1704913153863301000,11.712301025390625,-0.2996063232421875,0.9474334716796875,-0.0955810546875
1704913153873240000,11.722239990234375,-0.2969970703125,0.918792724609375,-0.0944061279296875
1704913153883179800,11.7321796875,-0.2759552001953125,0.8897247314453125,-0.077392578125
1704913153893119000,11.742118896484374,-0.24615478515625,0.8664703369140625,-0.0553436279296875
1704913153903058000,11.752057861328124,-0.22332763671875,0.8560333251953125,-0.033203125
1704913153912998000,11.761997802734374,-0.2026519775390625,0.8578338623046875,-0.0090789794921875
1704913153922936800,11.771936767578126,-0.195892333984375,0.8792724609375,0.0100860595703125
1704913153932875800,11.781875732421875,-0.194244384765625,0.8945770263671875,0.0229339599609375
1704913153942816000,11.79181591796875,-0.2024688720703125,0.904083251953125,0.037506103515625
1704913153952755000,11.8017548828125,-0.2048492431640625,0.9109649658203125,0.0528411865234375
1704913153962694000,11.81169384765625,-0.185272216796875,0.9122161865234375,0.07427978515625
1704913153972633900,11.8216337890625,-0.147430419921875,0.9268951416015625,0.0948944091796875
1704913153982573000,11.831572998046875,-0.1042327880859375,0.951324462890625,0.1103973388671875
1704913153992512000,11.841511962890625,-0.0453033447265625,0.97576904296875,0.1426849365234375
1704913154002452000,11.851451904296875,0.0010833740234375,0.99468994140625,0.180419921875
1704913154012391000,11.861390869140624,0.00750732421875,1.0042266845703125,0.2095184326171875
1704913154022329900,11.871329833984374,-0.0163726806640625,1.01080322265625,0.22662353515625
1704913154032270000,11.88127001953125,-0.0712738037109375,1.0131378173828125,0.223175048828125
1704913154042209000,11.891208984375,-0.1493377685546875,1.01495361328125,0.1997833251953125
1704913154052148000,11.90114794921875,-0.2280120849609375,1.00396728515625,0.1631622314453125
1704913154062088000,11.911087890625,-0.2483367919921875,0.9725799560546875,0.1247711181640625
1704913154072027000,11.92102685546875,-0.2101287841796875,0.9316864013671875,0.0846405029296875
1704913154081965800,11.9309658203125,-0.1418304443359375,0.8882904052734375,0.041290283203125
1704913154091905800,11.94090576171875,-0.07000732421875,0.8436737060546875,0.0061492919921875
1704913154101845000,11.950844970703125,-0.03936767578125,0.8109283447265625,-0.01513671875
1704913154111784000,11.960783935546875,-0.07470703125,0.8027801513671875,-0.0193939208984375
1704913154121724000,11.970723876953125,-0.0994720458984375,0.8149261474609375,-0.00482177734375
1704913154131662800,11.980662841796875,-0.1135101318359375,0.8476409912109375,0.009674072265625
1704913154141602000,11.99060205078125,-0.128936767578125,0.893951416015625,0.04095458984375
1704913154151542000,12.0005419921875,-0.1326141357421875,0.948089599609375,0.0815582275390625
1704913154161481000,12.01048095703125,-0.143035888671875,0.9939727783203125,0.1028289794921875
1704913154171420000,12.020419921875,-0.1549072265625,1.02545166015625,0.1112823486328125
1704913154181360000,12.030360107421876,-0.159881591796875,1.0263519287109375,0.118804931640625
1704913154191299000,12.040299072265626,-0.12078857421875,1.0115203857421875,0.12469482421875
1704913154201238000,12.050238037109375,-0.03662109375,1.010955810546875,0.13043212890625
1704913154211177700,12.060177734375,0.0084381103515625,1.0199737548828125,0.1249542236328125
1704913154221117000,12.070116943359375,-0.022613525390625,1.03253173828125,0.10986328125
1704913154231056000,12.080055908203125,-0.069793701171875,1.031646728515625,0.0899505615234375
1704913154240995800,12.089995849609375,-0.108612060546875,1.008026123046875,0.056671142578125
1704913154250934800,12.099934814453125,-0.126739501953125,0.9719696044921875,0.0225982666015625
1704913154260874000,12.1098740234375,-0.151092529296875,0.931610107421875,-0.003997802734375
1704913154270814000,12.11981396484375,-0.1887969970703125,0.8914031982421875,-0.0229034423828125
1704913154280753000,12.1297529296875,-0.2134857177734375,0.8598785400390625,-0.0353851318359375
1704913154290691800,12.13969189453125,-0.234161376953125,0.847686767578125,-0.041290283203125
1704913154300632000,12.149632080078124,-0.258544921875,0.8509979248046875,-0.041168212890625
1704913154310571000,12.159571044921876,-0.262359619140625,0.878570556640625,-0.03271484375
1704913154320510000,12.169510009765625,-0.232025146484375,0.9160003662109375,-0.0221099853515625
1704913154330450000,12.179449951171875,-0.17547607421875,0.9375152587890625,-0.0096435546875
1704913154340389000,12.18938916015625,-0.1772308349609375,0.938507080078125,-0.004791259765625
1704913154350328000,12.199328125,-0.2606353759765625,0.9247894287109375,-0.0045928955078125
1704913154360267800,12.209267822265625,-0.3333740234375,0.89373779296875,-0.006622314453125
1704913154370206700,12.219206787109375,-0.3451080322265625,0.8614654541015625,-0.00726318359375
1704913154380146000,12.22914599609375,-0.36090087890625,0.8256988525390625,-0.01068115234375
1704913154390086000,12.2390859375,-0.3434600830078125,0.7954254150390625,-0.0106658935546875
1704913154400024800,12.24902490234375,-0.3218231201171875,0.776031494140625,-0.0174713134765625
1704913154409963800,12.2589638671875,-0.29949951171875,0.786224365234375,-0.035919189453125
1704913154419904000,12.268904052734374,-0.3209686279296875,0.84967041015625,-0.0709686279296875
1704913154429843000,12.278843017578126,-0.3823089599609375,0.94952392578125,-0.099853515625
1704913154439782000,12.288781982421876,-0.46307373046875,1.0214080810546875,-0.131561279296875
1704913154449721900,12.298721923828126,-0.5077667236328125,1.041534423828125,-0.161407470703125
1704913154459661000,12.3086611328125,-0.4804229736328125,1.014312744140625,-0.1833953857421875
1704913154469600000,12.31860009765625,-0.37322998046875,0.973236083984375,-0.193084716796875
1704913154479540000,12.3285400390625,-0.208984375,0.9660491943359375,-0.1807098388671875
1704913154489479000,12.33847900390625,-0.058013916015625,0.99456787109375,-0.14642333984375
1704913154499418000,12.348418212890625,0.0485382080078125,1.0667877197265625,-0.0621337890625
1704913154509357800,12.35835791015625,0.106689453125,1.15325927734375,0.07440185546875
1704913154519296800,12.368296875,0.0382232666015625,1.2069091796875,0.2232513427734375
1704913154529235700,12.378235595703124,-0.0561370849609375,1.2328338623046875,0.4092254638671875
1704913154539176000,12.388176025390624,-0.10858154296875,1.2373504638671875,0.5820770263671875
1704913154549115000,12.398114990234374,-0.1886444091796875,1.2074737548828125,0.6835784912109375
1704913154559053800,12.4080537109375,-0.2270050048828125,1.1985626220703125,0.735198974609375
1704913154568993800,12.417993896484376,-0.22088623046875,1.1923675537109375,0.734954833984375
1704913154578933000,12.42793310546875,-0.20318603515625,1.1785736083984375,0.682647705078125
1704913154588873000,12.437873046875,-0.089569091796875,1.2128753662109375,0.59136962890625
1704913154598812000,12.44781201171875,0.14495849609375,1.2624969482421875,0.455780029296875
1704913154608750800,12.457750732421875,0.4703826904296875,1.3193817138671875,0.277374267578125
1704913154618691000,12.467691162109375,0.78179931640625,1.4235992431640625,0.123077392578125
1704913154628630000,12.477630126953125,0.9654388427734375,1.5381622314453125,-0.0179595947265625
1704913154638569000,12.48756884765625,0.959808349609375,1.62567138671875,-0.0703582763671875
1704913154648509000,12.497509033203125,0.774169921875,1.6563873291015625,-0.0151214599609375
1704913154658448000,12.50744775390625,0.5085906982421875,1.650177001953125,0.09765625
1704913154668386800,12.51738671875,0.2633056640625,1.6237335205078125,0.239593505859375
1704913154678326800,12.527326904296874,0.1091461181640625,1.6648712158203125,0.3861846923828125
1704913154688266000,12.537265869140626,0.0119171142578125,1.709930419921875,0.486053466796875
1704913154698205000,12.547204833984376,-0.0572052001953125,1.6887664794921875,0.5389862060546875
1704913154708145000,12.557144775390626,-0.1743011474609375,1.5258331298828125,0.5442352294921875
1704913154718083800,12.567083740234375,-0.376861572265625,1.27923583984375,0.479522705078125
1704913154728022800,12.577022705078125,-0.5252532958984375,1.0947113037109375,0.370697021484375
1704913154737963000,12.586962890625,-0.478118896484375,0.993011474609375,0.2263031005859375
1704913154747902000,12.59690185546875,-0.2181243896484375,0.963592529296875,0.039794921875
1704913154757841000,12.6068408203125,0.1954193115234375,0.986968994140625,-0.0264129638671875
1704913154767781000,12.616781005859375,0.69354248046875,1.04461669921875,-0.019287109375
1704913154777720000,12.626719970703125,1.03564453125,1.111572265625,-0.0431976318359375
1704913154787659000,12.636658935546874,1.09710693359375,1.1730804443359375,-0.06732177734375
1704913154797598700,12.6465986328125,0.8599090576171875,1.228240966796875,-0.0759735107421875
1704913154807538000,12.656537841796874,0.385345458984375,1.256988525390625,-0.1002044677734375
1704913154817476900,12.666476806640626,-0.054779052734375,1.2611236572265625,-0.129852294921875
1704913154827416800,12.676416748046876,-0.237518310546875,1.18035888671875,-0.1066436767578125
1704913154837355800,12.686355712890625,-0.1473236083984375,0.9868927001953125,0.02630615234375
1704913154847294700,12.696294677734375,0.0294647216796875,0.8124237060546875,0.2231597900390625
1704913154857235000,12.70623486328125,0.119049072265625,0.7063751220703125,0.3549346923828125
1704913154867174000,12.716173828125,0.12408447265625,0.622406005859375,0.404937744140625
1704913154877112800,12.72611279296875,0.1049041748046875,0.5576324462890625,0.4359588623046875
1704913154887053000,12.736052978515625,0.0664520263671875,0.5201568603515625,0.447021484375
1704913154896992000,12.745991943359375,0.00933837890625,0.4823760986328125,0.4096221923828125
1704913154906931000,12.755930908203124,-0.0605926513671875,0.4111328125,0.326995849609375
1704913154916871000,12.765870849609374,-0.1305389404296875,0.3615570068359375,0.233612060546875
1704913154926810000,12.77581005859375,-0.11859130859375,0.2215576171875,0.0757293701171875
1704913154936749000,12.7857490234375,-0.1347198486328125,0.1272125244140625,-0.083770751953125
1704913154946688800,12.795688720703126,-0.108856201171875,0.0669708251953125,-0.18109130859375
1704913154956628000,12.8056279296875,-0.037017822265625,0.0305633544921875,-0.224273681640625
1704913154966567000,12.81556689453125,0.0503082275390625,-0.089080810546875,-0.3309173583984375
1704913154976507000,12.8255068359375,0.025299072265625,-0.141845703125,-0.3978118896484375
1704913154986445800,12.83544580078125,0.1099700927734375,-0.140106201171875,-0.3795623779296875
1704913154996384800,12.845384765625,0.233306884765625,-0.1052398681640625,-0.3422393798828125
1704913155006325000,12.855324951171875,0.333526611328125,0.00030517578125,-0.26202392578125
1704913155016264000,12.865263916015625,0.4690093994140625,0.1510162353515625,-0.1361236572265625
1704913155026203000,12.875202880859375,0.6677398681640625,0.276397705078125,-0.0637664794921875
1704913155036142800,12.885142822265625,0.89544677734375,0.40997314453125,-0.027679443359375
