time,seconds_elapsed,rotationRateX,rotationRateY,rotationRateZ,gravityX,gravityY,gravityZ,accelerationX,accelerationY,accelerationZ,quaternionW,quaternionX,quaternionY,quaternionZ
1705061542292556000,0.22755615234375,-0.19218109548091888,-0.001740878215059638,0.001475758384913206,-0.019993480294942856,-0.5354735255241394,-0.8443152904510498,-0.003413500264286995,-0.014880478382110596,-0.026900529861450195,0.9602903264384859,0.27880813834726015,-0.010410122544638023,4.336808689942018e-19
1705061542302505000,0.2375048828125,-0.15802845358848572,-0.006246680393815041,-0.01370452530682087,-0.020000897347927094,-0.5339927673339844,-0.8452523946762085,-0.005542313680052757,-0.01837533712387085,-0.02368980646133423,0.9605342513088815,0.2779661874542225,-0.010421067082882238,-0.00003361398157996362
1705061542312423000,0.2474228515625,-0.11000046133995056,-0.0035062874667346478,-0.0315338596701622,-0.019923483952879906,-0.5328684449195862,-0.8459634780883789,-0.006657322868704796,-0.014693140983581543,-0.02215474843978882,0.9607192850224953,0.27732623513476923,-0.010412310011983953,-0.00014987846549392595
1705061542322371800,0.257371826171875,-0.06716404855251312,0.000517482403665781,-0.037219442427158356,-0.01975245401263237,-0.5321420431137085,-0.8464246392250061,-0.0054092854261398315,-0.005730271339416504,-0.02184617519378662,0.9608392924092518,0.27691167817274,-0.010372943571600205,-0.000326837314672953
1705061542332290000,0.2672900390625,-0.03149302676320076,0.004777445457875729,-0.0328579805791378,-0.01954689808189869,-0.5317528247833252,-0.8466740250587463,-0.0047908686101436615,-0.00448685884475708,-0.017980515956878662,0.9609041345989554,0.27668869061909923,-0.010313292971194498,-0.0004938277523947481
1705061542342239000,0.277239013671875,-0.015499450266361237,0.009367907419800758,-0.017112040892243385,-0.019353194162249565,-0.531571626663208,-0.8467922210693359,-0.006479933857917786,-0.005400419235229492,-0.014078140258789062,0.9609348018751489,0.2765844325524755,-0.010244568542848902,-0.0006065618793552096
1705061542352157000,0.287156982421875,-0.02840592712163925,0.0076128835789859295,0.003992712125182152,-0.0192422978579998,-0.5314008593559265,-0.8469019532203674,-0.004317272454500198,-0.010362505912780762,-0.010474145412445068,0.9609633345174893,0.2764870949593702,-0.010194203887415217,-0.0006333300067449129
1705061542362105900,0.29710595703125,-0.05649926885962486,0.004134469199925661,0.011486846953630447,-0.019225070253014565,-0.5310400724411011,-0.8471285700798035,-0.0010385997593402863,-0.021923184394836426,-0.007348299026489258,0.9610223494105885,0.2762828932245312,-0.010172076953587524,-0.0005901841703191682
1705061542372024000,0.307024169921875,-0.09397314488887787,0.002504348522052169,0.009390939027071,-0.019255757331848145,-0.530414342880249,-0.8475198149681091,0.0031119585037231445,-0.028621912002563477,-0.004729270935058594,0.9611241827164072,0.27592863125952605,-0.010172173563204974,-0.0005394270399624889
1705061542381973000,0.316972900390625,-0.1217166930437088,0.00136549212038517,0.014842962846159935,-0.01929335482418537,-0.529494047164917,-0.8480941653251648,0.00864272192120552,-0.029175996780395508,-0.0021102428436279297,0.9612734799644067,0.2754077104555725,-0.010173495341085371,-0.0004823168191859556
1705061542391891000,0.326890869140625,-0.13210222125053406,0.0008973084040917456,0.028584074229002,-0.019382551312446594,-0.5284191370010376,-0.8487623333930969,0.011005476117134094,-0.026054739952087402,0.0038069486618041992,0.9614473373662797,0.2747999328245893,-0.010189387963732813,-0.00038313141688603534
1705061542401839900,0.33683984375,-0.1471172720193863,-0.0031859981827437878,0.05278448760509491,-0.019611580297350883,-0.5272324085235596,-0.8494947552680969,0.015278086066246033,-0.02330470085144043,0.008506596088409424,0.961637823722357,0.2741303806163931,-0.010254579835688064,-0.00020209809716503508
1705061542411757800,0.3467578125,-0.15376505255699158,-0.0029838643968105316,0.06492024660110474,-0.019940964877605438,-0.5259503126144409,-0.8502815365791321,0.021253220736980438,-0.026753544807434082,0.00805741548538208,0.9618423907548356,0.27340844518626634,-0.010347304249817321,0.00006585811829621074
1705061542421707000,0.35670703125,-0.15208891034126282,-0.006331487093120813,0.07252942770719528,-0.02033136412501335,-0.5246445536613464,-0.8510785698890686,0.030508978292346,-0.026075661182403564,0.010304033756256104,0.9620494760350862,0.2726743847124831,-0.010458992525429155,0.00037999080379024766
1705061542431625000,0.366625,-0.14635272324085236,-0.010392541065812111,0.07865043729543686,-0.020809231325984,-0.5233659148216248,-0.8518539667129517,0.04159170389175415,-0.021998465061187744,0.01309359073638916,0.9622507624996702,0.27195684950841675,-0.010606676114108777,0.0007292829955774524
1705061542441543000,0.37654296875,-0.1314525306224823,-0.015371055342257023,0.08873289823532104,-0.021361712366342545,-0.5221778750419617,-0.852569043636322,0.04804933816194534,-0.01937180757522583,0.01832526922225952,0.9624361583349633,0.2712916461321292,-0.01078559464517129,0.0011073324828722738
1705061542451492000,0.3864921875,-0.11995486915111542,-0.018115708604454994,0.0967966839671135,-0.022004548460245132,-0.5210968852043152,-0.8532138466835022,0.04899735003709793,-0.01582944393157959,0.025958597660064697,0.9626029632350208,0.2706881800840434,-0.010999906787586146,0.0015284413361043147
1705061542461410000,0.39641015625,-0.12151920050382614,-0.01314477063715458,0.1073465347290039,-0.011958659626543522,-0.5539548993110657,-0.8324607610702515,0.03261905908584595,0.02189624309539795,0.00947803258895874,0.9571991666458796,0.2893645324375932,-0.006146360296124266,0.00033189567778107694
1705061542471359000,0.40635888671875,-0.13543608784675598,-0.005953703075647354,0.1284978836774826,-0.010672202333807945,-0.5498799085617065,-0.8351755738258362,0.021689049899578094,0.018599390983581543,0.01727396249771118,0.9579078527436082,0.2870246351105737,-0.005392818768050473,0.0005932517056381173
1705061542481277000,0.41627685546875,-0.1687183678150177,-0.0014262403128668666,0.15297740697860718,-0.00930209644138813,-0.5477815270423889,-0.8365697264671326,0.01134677417576313,0.010626375675201416,0.01982778310775757,0.9582713651884525,0.2858220088040441,-0.004574356318117531,0.0009361536919400195
1705061542491225900,0.426225830078125,-0.20223824679851532,0.004669735208153725,0.15914501249790192,-0.0074567063711583614,-0.5464239120483398,-0.8374755382537842,0.0009412034414708614,0.007147789001464844,0.02015376091003418,0.9585072079049451,0.28504378862128776,-0.00350286845268517,0.0013009527599472672
1705061542501143800,0.436143798828125,-0.23221296072006226,0.013857729732990265,0.16778483986854553,-0.004717362578958273,-0.5448737144470215,-0.8385048508644104,-0.006741988006979227,0.009809017181396484,0.0223122239112854,0.9587751206041148,0.28415422489283954,-0.0019904965099385246,0.0015845015515873959
1705061542511093000,0.446093017578125,-0.25067663192749023,0.022593697533011436,0.16789615154266357,-0.0011800870997831225,-0.5427894592285156,-0.8398679494857788,-0.01331576332449913,0.0125313401222229,0.02326333522796631,0.9591301019176343,0.28295940726821955,-0.00008368905961737101,0.0018015830705809788
1705061542521011000,0.456010986328125,-0.24048210680484772,0.039002202451229095,0.16353149712085724,0.0022278057876974344,-0.5408754348754883,-0.841099739074707,-0.02067568153142929,0.02027606964111328,0.02409839630126953,0.9594506519374411,0.28186343375705797,0.0017681363849491461,0.0020667339102453802
1705061542530960000,0.4659599609375,-0.20843203365802765,0.044349562376737595,0.15977057814598083,0.0045308917760849,-0.539329469203949,-0.8420826196670532,-0.0259694904088974,0.03598785400390625,0.022105813026428223,0.9597056532944189,0.28097886911579195,0.0030930602861108727,0.002501901478752273
1705061542540878000,0.475878173828125,-0.1684580296278,0.054821524769067764,0.15452682971954346,0.0053670755587518215,-0.5380359888076782,-0.8429047465324402,-0.029552258551120758,0.04677927494049072,0.014444053173065186,0.959917864284507,0.2802388876043267,0.0037135798997878517,0.003144438073471234
1705061542550827000,0.485826904296875,-0.13589182496070862,0.06592877209186554,0.1506492644548416,0.005390466190874577,-0.5372141599655151,-0.8434286713600159,-0.03043013997375965,0.06017863750457764,0.005736410617828369,0.9600515809734411,0.27976791280879354,0.003947379216375861,0.003912009125811609
1705061542560745000,0.495744873046875,-0.11775181442499161,0.06556575000286102,0.14268800616264343,0.004965954460203648,-0.5368589162826538,-0.843657374382019,-0.02809828147292137,0.060525357723236084,0.0021504759788513184,0.9601073646775418,0.27956321746518115,0.003963729617726045,0.004731054517111027
1705061542570694000,0.50569384765625,-0.11939526349306107,0.06661343574523926,0.12688560783863068,0.0042756469920277596,-0.5365431308746338,-0.8438620567321777,-0.027423230931162834,0.05288529396057129,0.0012564659118652344,0.9601563228643908,0.2793818932205131,0.003838416555918783,0.005539573379272456
1705061542580611800,0.51561181640625,-0.12336721271276474,0.06374242901802063,0.1078682467341423,0.0036132209934294224,-0.5360279083251953,-0.8441925644874573,-0.023525942116975784,0.05023384094238281,-0.0011290907859802246,0.9602379954701411,0.279087852875968,0.0037017192839939967,0.006262977874040336
1705061542590561000,0.52556103515625,-0.13394901156425476,0.059038229286670685,0.10369427502155304,0.0029943822883069515,-0.5352839231491089,-0.8446668386459351,-0.02302917279303074,0.04947459697723389,-0.000853121280670166,0.9603567710574165,0.2786643388785712,0.0035712149443990647,0.006934684759491048
1705061542600479000,0.53547900390625,-0.15075112879276276,0.05406959727406502,0.10095494240522385,0.002310357289388776,-0.5342047810554504,-0.8453519344329834,-0.020514093339443207,0.04987555742263794,-0.0012819766998291016,0.9605303150841055,0.2780512161598817,0.0033977331747357003,0.007582944831202433
1705061542610397000,0.54539697265625,-0.18523773550987244,0.040396127849817276,0.09828832000494003,0.001527478569187224,-0.5325335264205933,-0.8464075326919556,-0.01965492218732834,0.04286378622055054,-0.0023931264877319336,0.9607997327002689,0.2771032720914678,0.00316580384247628,0.00822063262613197
1705061542620346000,0.55534619140625,-0.21453920006752014,0.034890756011009216,0.08590967953205109,0.0006732889451086521,-0.530229926109314,-0.8478536009788513,-0.016221996396780014,0.033205389976501465,-0.005097389221191406,0.9611707113832134,0.27579864410928345,0.0028797093249070677,0.008815300051893038
1705061542630264000,0.56526416015625,-0.22988192737102509,0.02595292031764984,0.07564346492290497,-0.0001932674931595102,-0.5273642539978027,-0.8496392369270325,-0.009602876380085945,0.031148433685302734,-0.008194565773010254,0.9616300516735607,0.27417843482151105,0.002561715663408043,0.009337191362413264
1705061542640213000,0.575212890625,-0.2363433837890625,0.023382287472486496,0.07725787162780762,-0.001026283367536962,-0.5244105458259583,-0.8514649271965027,-0.005092492327094078,0.03481703996658325,-0.0064452290534973145,0.9620997182401134,0.2725114509897852,0.0022489914949649324,0.009823057858921645
1705061542650131000,0.585130859375,-0.2389812469482422,0.026573820039629936,0.08987566083669662,-0.0018791001057252288,-0.5216430425643921,-0.8531617522239685,-0.0025154324248433113,0.03710019588470459,-0.005908012390136719,0.9625350025526584,0.2709526858562436,0.0019383389888407226,0.010353354376749809
1705061542660079900,0.595079833984375,-0.24737879633903503,0.020078815519809723,0.11213941872119904,-0.0027281874790787697,-0.5188929438591003,-0.8548348546028137,0.0005309204570949078,0.03540295362472534,-0.003288865089416504,0.9629629557444629,0.26940648975689585,0.0016456010779443164,0.01094534368471489
1705061542669997800,0.604997802734375,-0.2749965786933899,0.018954960629343987,0.13436244428157806,-0.003712940262630582,-0.5160677433013916,-0.8565397262573242,0.004994677845388651,0.0301058292388916,0.0015592575073242188,0.9633972770560971,0.26782165854329515,0.0013079608233640462,0.01163668424489024
1705061542679947000,0.614947021484375,-0.3183925747871399,0.021430429071187973,0.14946894347667694,-0.004718025680631399,-0.512944221496582,-0.8584089279174805,0.012683112174272537,0.021626532077789307,0.006037771701812744,0.9638725448640943,0.2660724895218919,0.0009781352169905035,0.012409439843056426
1705061542689865000,0.624864990234375,-0.38262510299682617,0.024015825241804123,0.1631338894367218,-0.0057419720105826855,-0.5095374584197998,-0.8604292869567871,0.020726103335618973,0.01187211275100708,0.014451563358306885,0.9643853707478994,0.264168356869089,0.0006514414610597825,0.01324619892292821
1705061542699814100,0.634814208984375,-0.45900651812553406,0.02348431572318077,0.18746159970760345,-0.006742384750396013,-0.5057112574577332,-0.8626764416694641,0.029462721198797226,0.0003249049186706543,0.02101689577102661,0.9649547348389756,0.26203371713892676,0.00035039446678722776,0.014155839668499787
1705061542709732000,0.644732177734375,-0.5612183809280396,0.028639130294322968,0.21959157288074493,-0.007637613918632269,-0.5011609196662903,-0.8653203845024109,0.03733121603727341,-0.008970975875854492,0.034860849380493164,0.9656240234985178,0.25949910677067556,0.0001239650519319124,0.015177357428320961
1705061542719680000,0.654679931640625,-0.6759597659111023,0.043674685060977936,0.2576977014541626,-0.008518600836396217,-0.4957933723926544,-0.8683987259864807,0.04454459995031357,-0.01569649577140808,0.05035978555679321,0.9664011698980762,0.25651632816081704,-0.00006107216017112215,0.016374318279929516
1705061542729599000,0.664598876953125,-0.8289666175842285,0.06552086770534515,0.30654940009117126,-0.009430291131138802,-0.4893055558204651,-0.8720614314079285,0.05560338497161865,-0.020414292812347412,0.06677883863449097,0.9673231374699884,0.25292141540967067,-0.00022278184485560162,0.017790677834689312
1705061542739547100,0.674547119140625,-1.0395156145095825,0.09792443364858627,0.36700552701950073,-0.010336501523852348,-0.48121196031570435,-0.8765433430671692,0.0701814740896225,-0.021107375621795654,0.09341651201248169,0.9684477991432099,0.2484516549518427,-0.0003320873544108354,0.019507382896133265
1705061542749465900,0.6844658203125,-1.335005283355713,0.13178865611553192,0.4380136728286743,-0.011239942163228989,-0.47086310386657715,-0.8821346759796143,0.08765595406293869,-0.02500176429748535,0.12705349922180176,0.9698461332062768,0.2427601807864339,-0.0003925104474071666,0.02158218944587385
1705061542759414000,0.6944140625,-1.6905566453933716,0.173141747713089,0.5247421860694885,-0.012120958417654037,-0.4574945271015167,-0.8891298174858093,0.10552000254392624,-0.037653177976608276,0.16319292783737183,0.9715891730435472,0.2354462232825773,-0.00040447387244980714,0.024071299853089756
1705061542769333000,0.7043330078125,-2.0579562187194824,0.2190149575471878,0.612433135509491,-0.012904055416584015,-0.44082948565483093,-0.8974980711936951,0.12641417980194092,-0.04435423016548157,0.21399593353271484,0.9736621348225274,0.2263864801289555,-0.0003404824859342381,0.02703568255105988
1705061542779251000,0.7142509765625,-2.4351868629455566,0.25424933433532715,0.7171339988708496,-0.013627934269607067,-0.42062705755233765,-0.9071312546730042,0.15231506526470184,-0.053600817918777466,0.2662469148635864,0.9760302869643163,0.2154862082531256,-0.0002471096450693365,0.0305020947918189
1705061553010025200,10.945025146484374,-2.076939105987549,-3.4962761402130127,0.03004295565187931,0.7101958990097046,0.1688564419746399,-0.6834538578987122,0.38483572006225586,0.8610507845878601,0.8189061284065247,0.11262649517790331,-0.395415434723229,-0.043814608652663824,0.9105174179721961
1705061553019974100,10.95497412109375,-2.11761474609375,-3.3790059089660645,-0.25653207302093506,0.6862277388572693,0.18421892821788788,-0.7036723494529724,0.29979509115219116,0.8100132942199707,0.9096202254295349,0.10823405930757876,-0.38089626894754347,-0.055514451159617714,0.9165813771481798
1705061553029892000,10.96489208984375,-2.036034107208252,-3.241119623184204,-0.5017740726470947,0.662105143070221,0.20147009193897247,-0.721821665763855,0.211078941822052,0.7545540928840637,1.01585853099823,0.10510841989541918,-0.36679633566208053,-0.06745092620921307,0.9218800870397589
1705061553039841300,10.97484130859375,-1.8746638298034668,-3.0886590480804443,-0.7454650402069092,0.6378105878829956,0.21973735094070435,-0.7381823062896729,0.13083559274673462,0.7303969860076904,1.1181414127349854,0.10331200506139196,-0.35303455525276745,-0.07921781968360853,0.9265083170204286
1705061553049759200,10.98475927734375,-1.6207832098007202,-2.9116158485412598,-0.9832562804222107,0.613635241985321,0.23807592689990997,-0.752842366695404,0.07699275016784668,0.7299874424934387,1.1585583686828613,0.10303117027995902,-0.3397388995689939,-0.09031214926004166,0.9304868646566693
1705061553059708400,10.99470849609375,-1.2614330053329468,-2.669945478439331,-1.1416770219802856,0.5899089574813843,0.25540098547935486,-0.7660141587257385,0.03454160690307617,0.7048345804214478,1.1893997192382812,0.10426504288442276,-0.32702732404956986,-0.10022997076326938,0.9338821323440223
1705061553069626400,11.00462646484375,-0.810656726360321,-2.420513868331909,-1.246751308441162,0.5673134922981262,0.2701950669288635,-0.7779138088226318,-0.0024332404136657715,0.6630934476852417,1.2230432033538818,0.10683333800021426,-0.31515017421854497,-0.10827490871761905,0.9367728450903525
1705061553079563500,11.0145634765625,-0.4119511842727661,-2.197720766067505,-1.3945127725601196,0.5456916689872742,0.28222545981407166,-0.7890306711196899,-0.037406206130981445,0.6295940279960632,1.271360993385315,0.11076475570211171,-0.3039734387548513,-0.11438890956631466,0.9392797386994918
1705061553089481500,11.0244814453125,-0.0981176346540451,-1.926875352859497,-1.5441139936447144,0.5252405405044556,0.29200083017349243,-0.799285888671875,-0.047838807106018066,0.5990056991577148,1.2663726806640625,0.11605391354036157,-0.29363463684346597,-0.11889390245080986,0.9413683771615408
1705061553099430700,11.0344306640625,0.10191479325294495,-1.6147022247314453,-1.6710500717163086,0.506352961063385,0.30017703771591187,-0.8083937168121338,-0.047292351722717285,0.5400329232215881,1.2583143711090088,0.12253706919553348,-0.2843714493768506,-0.1222129881696385,0.9429642528604403
1705061553109348600,11.0443486328125,0.19592365622520447,-1.273619294166565,-1.7829869985580444,0.48951759934425354,0.3074696362018585,-0.8159871101379395,-0.03569072484970093,0.47237658500671387,1.254051685333252,0.12996220593958513,-0.27646428103991727,-0.1247956155160628,0.9439827431914813
1705061553119297800,11.0542978515625,0.19965527951717377,-0.9492619633674622,-1.8799234628677368,0.4748544991016388,0.3145860433578491,-0.821917712688446,-0.024994969367980957,0.4136548936367035,1.2520935535430908,0.13814109514043288,-0.2699935353562867,-0.12706148990445704,0.9443917310978822
1705061553129215700,11.0642158203125,0.10897669196128845,-0.6973311305046082,-2.0163283348083496,0.4620116353034973,0.32237565517425537,-0.82620769739151,-0.03015744686126709,0.38209211826324463,1.2699942588806152,0.1469474393949063,-0.26481263600770505,-0.1295006612512845,0.9441981993581494
1705061553139133700,11.0741337890625,0.06005069985985756,-0.4317631125450134,-2.084573268890381,0.45072412490844727,0.3310675323009491,-0.8290005922317505,-0.02517184615135193,0.3464532196521759,1.2469236850738525,0.15631933699579978,-0.2607872396650084,-0.13224868855818747,0.9434322493288494
1705061553149082600,11.08408251953125,0.11526286602020264,-0.1713196486234665,-2.0792126655578613,0.44135183095932007,0.3396821916103363,-0.8305567502975464,-0.031165093183517456,0.2839750349521637,1.2414454221725464,0.1659971319496461,-0.2579673544991628,-0.13481268789551595,0.9421906582938259
1705061553159000600,11.09400048828125,0.25430622696876526,0.052876975387334824,-2.1004467010498047,0.43385598063468933,0.3472914397716522,-0.8313588500022888,-0.032610923051834106,0.23498395085334778,1.261153221130371,0.17592656504359885,-0.256193907672484,-0.1366939747770369,0.9406004229937689
1705061553168949500,11.103949462890625,0.42352619767189026,0.2579399347305298,-2.150895833969116,0.4279356002807617,0.35375985503196716,-0.8317000865936279,-0.021258443593978882,0.20063772797584534,1.2817580699920654,0.18638641652799606,-0.25529745561809547,-0.13774309009142774,0.9386746220640741
1705061553178867500,11.113867431640625,0.5833171606063843,0.4510803818702698,-2.191805839538574,0.4235301911830902,0.35904771089553833,-0.831689178943634,-0.019828468561172485,0.14331737160682678,1.2995998859405518,0.19735538730785987,-0.2552098580933132,-0.13792515417223564,0.9364268476483313
1705061553188816600,11.123816650390625,0.6829847693443298,0.6092202067375183,-2.194148540496826,0.4201168715953827,0.36307793855667114,-0.8316707611083984,-0.028667926788330078,0.07622262835502625,1.3218135833740234,0.20873698113596306,-0.2555897664627434,-0.1372533918718595,0.9339508999564647
1705061553198734600,11.133734619140625,0.7536770105361938,0.78004390001297,-2.1724188327789307,0.41797155141830444,0.3662799000740051,-0.8313475847244263,-0.03540325164794922,0.023490607738494873,1.3077727556228638,0.2202190989469651,-0.2565797987150418,-0.13598902484678527,0.9312235450346132
1705061553208683800,11.143683837890626,0.7883942127227783,0.9812953472137451,-2.143646717071533,0.4173910617828369,0.3688865602016449,-0.8304862380027771,-0.02821570634841919,-0.01204448938369751,1.2869682312011719,0.23176790422749244,-0.2583532538170971,-0.13420313548084384,0.9281846205620762
1705061553218601700,11.153601806640625,0.7712743878364563,1.1853874921798706,-2.1275808811187744,0.41849517822265625,0.3713122606277466,-0.8288479447364807,-0.005638152360916138,-0.023442387580871582,1.279180645942688,0.2432994975783611,-0.2610160350717559,-0.13208574965966569,0.9247860305286323
1705061553228549600,11.163549560546874,0.7247033715248108,1.3921905755996704,-2.077101945877075,0.4213317334651947,0.3739810883998871,-0.8262068033218384,0.028039544820785522,-0.027011454105377197,1.2745863199234009,0.25477767440086857,-0.26465641650455046,-0.1298213713895329,0.9209731627410026
1705061553238468600,11.173468505859375,0.6938768029212952,1.601895809173584,-1.9901196956634521,0.42599642276763916,0.37675371766090393,-0.8225470781326294,0.06506186723709106,-0.02938738465309143,1.267081379890442,0.265948606189123,-0.26926924570094085,-0.12735984321000526,0.9168123790606341
1705061553248416800,11.183416748046875,0.6717754602432251,1.8271836042404175,-1.8780086040496826,0.4327400326728821,0.37948036193847656,-0.8177595734596252,0.09941014647483826,-0.024789810180664062,1.2624311447143555,0.2767434857516542,-0.27495815874634966,-0.12457217729630549,0.9123008393900717
1705061553258335500,11.19333544921875,0.6947814226150513,2.006138324737549,-1.7599972486495972,0.4414081871509552,0.381879061460495,-0.8119896650314331,0.12383836507797241,-0.005032718181610107,1.2526482343673706,0.28706711382052685,-0.28157466367977846,-0.1213296111195227,0.9075171409290451
1705061553268283600,11.20328369140625,0.7572027444839478,2.1768367290496826,-1.6259902715682983,0.4518025815486908,0.38359105587005615,-0.8054391741752625,0.14489227533340454,0.013274788856506348,1.2249186038970947,0.2969640198614402,-0.2889441209854916,-0.11743806403824673,0.9025142027666588
1705061553278202600,11.21320263671875,0.8270279169082642,2.402843952178955,-1.5165258646011353,0.4640118181705475,0.38443970680236816,-0.7980595827102661,0.14838433265686035,0.016484975814819336,1.1907140016555786,0.3064298785764226,-0.29707429632817034,-0.11276994413439695,0.8972906665494695
1705061553288150500,11.223150634765625,0.8933539986610413,2.6474685668945312,-1.418897032737732,0.4783686697483063,0.3845245838165283,-0.7894962430000305,0.14339640736579895,0.01975703239440918,1.1617343425750732,0.3156279071266201,-0.30619094468615626,-0.10723335583974902,0.8916990727864561
1705061553298069800,11.23306982421875,0.9575657844543457,2.8857169151306152,-1.3315997123718262,0.49469855427742004,0.38397684693336487,-0.7796378135681152,0.15073290467262268,0.02422630786895752,1.1629080772399902,0.3245474793987316,-0.3162327207425245,-0.10088580224784496,0.8857132261710866
1705061553308017700,11.243017578125,1.0435086488723755,3.116403818130493,-1.249879002571106,0.5128970146179199,0.3827914893627167,-0.7683796882629395,0.16782796382904053,0.023000746965408325,1.169579029083252,0.33326287516491765,-0.32716281035611894,-0.09367315722733717,0.8792756903698269
1705061553317935600,11.252935546875,1.198038101196289,3.289541244506836,-1.1929097175598145,0.5325501561164856,0.3806557059288025,-0.7559705972671509,0.20049721002578735,0.03215557336807251,1.1868329048156738,0.34183546424596417,-0.338692636748219,-0.08545180606648446,0.8724297987996457
1705061553327854600,11.2628544921875,1.3364052772521973,3.437615156173706,-1.160319209098816,0.5531286001205444,0.37758132815361023,-0.742617666721344,0.24858325719833374,0.08323407173156738,1.2100706100463867,0.35042058229613654,-0.35054220603975295,-0.07623205367566584,0.8651671134602148
1705061553337802800,11.272802734375,1.4936052560806274,3.6070330142974854,-1.0871672630310059,0.574658215045929,0.3735852837562561,-0.7281497120857239,0.33420097827911377,0.2088732123374939,1.1961519718170166,0.35900314026313557,-0.3627285511926166,-0.06597826648488772,0.8574331992832844
1705061553347721500,11.282721435546875,1.6705833673477173,3.807154893875122,-1.0105382204055786,0.5973052978515625,0.3683737814426422,-0.7124093770980835,0.4412993788719177,0.3395729660987854,1.1724008321762085,0.3674329497884057,-0.3752633157932075,-0.054523028974671185,0.8492335586899012
1705061553357669600,11.292669677734375,1.7857873439788818,4.0320305824279785,-1.0015958547592163,0.6211153268814087,0.3623282015323639,-0.6949345469474792,0.5415433049201965,0.4350961148738861,1.157703161239624,0.3758840924464912,-0.38830057873412854,-0.041897223666787796,0.8403442275679558
1705061553367588600,11.302588623046875,1.8832767009735107,4.255620002746582,-1.016204833984375,0.645706295967102,0.35623592138290405,-0.6753957867622375,0.6121976971626282,0.5071216225624084,1.1291005611419678,0.38437032176445096,-0.40185955549526814,-0.028478246491091166,0.8306367770413444
1705061553377536500,11.31253662109375,1.9523776769638062,4.458144187927246,-1.0779424905776978,0.6708738803863525,0.3503516614437103,-0.653591513633728,0.6713501214981079,0.5597587823867798,1.134334921836853,0.39302720092384,-0.4159333501599257,-0.014272385290543008,0.8199544103242028
1705061553387455700,11.322455810546876,2.038769006729126,4.665048599243164,-1.1881849765777588,0.6960515975952148,0.3453809916973114,-0.6294633746147156,0.7493523955345154,0.6153123378753662,1.1929552555084229,0.40192436677095905,-0.43042787439871383,0.0003822727998287434,0.8082007825577681
1705061553397403600,11.332403564453125,2.2906298637390137,4.752419948577881,-1.3729039430618286,0.7205960154533386,0.3411696255207062,-0.6036098003387451,0.8295137882232666,0.6479203701019287,1.303942322731018,0.41152511460084834,-0.44491317966557,0.0157281961225121,0.7952685712847672
1705061553407321600,11.342321533203124,2.6186001300811768,4.8275861740112305,-1.6448605060577393,0.7435702085494995,0.33776065707206726,-0.5770796537399292,0.9314174652099609,0.6938250064849854,1.4111707210540771,0.4223530403371613,-0.45874430071252836,0.03184085758941123,0.7811258579952591
1705061553417270800,11.352270751953125,2.9084157943725586,4.89915657043457,-1.9521394968032837,0.7648488283157349,0.3357381522655487,-0.5498055219650269,1.1177499294281006,0.8553018569946289,1.4656989574432373,0.43468444304035375,-0.47193853495102733,0.04869559234547584,0.7654751274220972
1705061553427188700,11.362188720703125,3.1779797077178955,5.000461101531982,-2.339280843734741,0.7840291261672974,0.33606842160224915,-0.5218777060508728,1.3688790798187256,1.0390384197235107,1.420254111289978,0.4485334973551728,-0.4844831370627289,0.06585774034022884,0.748168756689658
1705061553437137700,11.3721376953125,3.510772466659546,5.2221760749816895,-2.737255334854126,0.8012586236000061,0.3392932713031769,-0.4928128719329834,1.631251573562622,1.1535351276397705,1.2901761531829834,0.46411548421799526,-0.4966116459639449,0.08348916422663458,0.7286995984458111
1705061553447055600,11.3820556640625,3.94997501373291,5.517026424407959,-3.1867122650146484,0.8166553378105164,0.3453681766986847,-0.4623795747756958,1.8232982158660889,1.1834251880645752,1.1111373901367188,0.4814648014392516,-0.5083412352250829,0.10197743508576547,0.706669272939866
1705061553457004500,11.392004638671875,4.277859210968018,5.827004909515381,-3.707923412322998,0.8298503160476685,0.3553282916545868,-0.4302210807800293,1.9562366008758545,1.1436951160430908,0.9319453239440918,0.5007768609736066,-0.5197914774514328,0.12126943446450761,0.6814198305091976
1705061553466922500,11.401922607421875,4.415340423583984,6.1066131591796875,-4.166991710662842,0.8401288986206055,0.3702111840248108,-0.39639270305633545,2.064457893371582,1.068356990814209,0.7355802655220032,0.5212947304129353,-0.5310959202763622,0.14050183788932252,0.6530300012186465
1705061553476871700,11.41187158203125,4.5847883224487305,6.307775974273682,-4.5717949867248535,0.8470305800437927,0.3900296986103058,-0.3611315190792084,2.1753387451171875,0.9466401934623718,0.5209977626800537,0.5425260015203714,-0.542203065425421,0.15953080336177783,0.6214750479937038
1705061553486789600,11.42178955078125,4.87614631652832,6.3006205558776855,-4.968069076538086,0.8495495319366455,0.41420871019363403,-0.32664453983306885,2.2870163917541504,0.8331820368766785,0.3965449929237366,0.5643250584623067,-0.55225353064548,0.1780274396587764,0.587247372349002
1705061553496707600,11.43170751953125,5.416596412658691,5.993485450744629,-5.417975902557373,0.8465583920478821,0.44208940863609314,-0.29647207260131836,2.4027700424194336,0.7764774560928345,0.3913206458091736,0.587421158331279,-0.5598400841408011,0.1958137940604713,0.5506108738656589
1705061553506656800,11.44165673828125,5.7712554931640625,5.455160140991211,-5.940887451171875,0.8368389010429382,0.4740277826786041,-0.27385807037353516,2.589766263961792,0.7636430859565735,0.4699333906173706,0.6123161867762864,-0.5641107418978376,0.2117782653590195,0.5118572920035919
1705061553516574700,11.45157470703125,5.981794357299805,4.890659332275391,-6.285894870758057,0.8202763795852661,0.5096628665924072,-0.2595961093902588,2.8016412258148193,0.8721119165420532,0.5378857851028442,0.6381994971102987,-0.5654112168631454,0.22474896695544205,0.47169830811114577
1705061553526523600,11.461523681640625,6.028501510620117,4.364691257476807,-6.393157482147217,0.7985429167747498,0.5458686351776123,-0.2536858916282654,3.0087690353393555,0.9147330522537231,0.5487602949142456,0.6640758657288285,-0.5637369736940899,0.2352821185331528,0.43109868534040835
1705061553536441600,11.471441650390625,6.090629577636719,3.8621230125427246,-6.456476211547852,0.7729796171188354,0.5807657837867737,-0.2553694248199463,3.1887054443359375,0.7747944593429565,0.4755841791629791,0.6891343960500073,-0.5594842060087009,0.24350095596208907,0.3908688114961755
1705061553546390500,11.481390625,6.135267734527588,3.397127389907837,-6.771252632141113,0.7430449724197388,0.614791214466095,-0.26441583037376404,3.3377959728240967,0.526154100894928,0.41782763600349426,0.7138012316826335,-0.5529131552907574,0.24915684787072942,0.3502792564764868
1705061553556308700,11.491308837890625,6.017879009246826,3.0297746658325195,-7.249011039733887,0.707707941532135,0.6488912105560303,-0.279445081949234,3.3828988075256348,0.3509255647659302,0.3519548177719116,0.7378364760542198,-0.5449806263823532,0.2515423795960684,0.3087391083200355
1705061553566257700,11.501257568359375,5.862906455993652,2.756330728530884,-7.615838527679443,0.6666520833969116,0.6827678084373474,-0.2990034520626068,3.3658642768859863,0.23703187704086304,0.24507880210876465,0.7608295876686088,-0.5362988743623451,0.25076241520780485,0.26578198825414134
1705061553576175600,11.511175537109375,5.7522149085998535,2.517063856124878,-7.8525710105896,0.6211226582527161,0.7143290042877197,-0.32239851355552673,3.339341640472412,0.115092933177948,0.17039036750793457,0.7822389227766732,-0.5268379228112445,0.24747231288574947,0.22203953713323357
1705061553586124500,11.52112451171875,5.6225385665893555,2.2198078632354736,-8.101664543151855,0.5711959004402161,0.7426744103431702,-0.34952813386917114,3.239182949066162,0.05378854274749756,0.2114664912223816,0.802034512777048,-0.5165029663285575,0.24178631330945424,0.17749558472469465
1705061553596042800,11.531042724609375,5.383296012878418,1.8813546895980835,-8.271011352539062,0.5172186493873596,0.7670211791992188,-0.3796882629394531,3.1178367137908936,0.0017622113227844238,0.30803292989730835,0.8198776975187178,-0.5055977804434731,0.2335096452708377,0.1328328004355381
1705061553605991700,11.54099169921875,5.041515827178955,1.5457159280776978,-8.346366882324219,0.45961785316467285,0.7869465947151184,-0.41166308522224426,3.012916326522827,-0.08382165431976318,0.4144248366355896,0.8354775117062653,-0.49451720936158156,0.22275813482452625,0.08836804664629092
1705061553615909600,11.55090966796875,4.655012130737305,1.1793164014816284,-8.318553924560547,0.399640291929245,0.8019179105758667,-0.44408923387527466,2.936800718307495,-0.16492456197738647,0.5052464008331299,0.8485363934358541,-0.4836715913601896,0.2098027002217819,0.04506140502577434
1705061553625858600,11.560858642578125,4.258938789367676,0.9372053742408752,-8.207001686096191,0.3380208909511566,0.8119038343429565,-0.47597676515579224,2.864356517791748,-0.2165517807006836,0.587838888168335,0.8590573984487805,-0.47322259046048626,0.19512048601529497,0.0029388805237813673
1705061553635776500,11.570776611328125,3.8926641941070557,0.791225016117096,-8.095494270324707,0.27636998891830444,0.8168966770172119,-0.5062601566314697,2.724301338195801,-0.23533856868743896,0.6386759281158447,0.8670104001454868,-0.4632885389313643,0.1795373336991567,-0.03772108080452504
1705061553645725700,11.5807255859375,3.598714590072632,0.6677442193031311,-8.020109176635742,0.21460773050785065,0.817218005657196,-0.5348815321922302,2.589026927947998,-0.3076660633087158,0.6695860624313354,0.8726069553542444,-0.45377423409932977,0.16324273398865477,-0.07744574332705237
1705061553655643600,11.5906435546875,3.3551361560821533,0.5145608186721802,-7.947062015533447,0.1532386839389801,0.8128722310066223,-0.5619221329689026,2.4772543907165527,-0.43764346837997437,0.6912708878517151,0.8760654242894649,-0.44454478349087995,0.1463518840734183,-0.11606138173233188
1705061553665592600,11.600592529296875,3.0972495079040527,0.4091161787509918,-7.912418842315674,0.09206215292215347,0.8041080236434937,-0.5873115658760071,2.367379903793335,-0.5213475227355957,0.7170569896697998,0.8774899778779351,-0.43560053518132874,0.1288270103680753,-0.15384125904409865
1705061553675510500,11.610510498046875,2.923076868057251,0.35976219177246094,-7.942471027374268,0.0316198393702507,0.791154146194458,-0.6107988953590393,2.2611048221588135,-0.5194104313850403,0.731450080871582,0.8768909274181058,-0.42694222595935555,0.11099947352112263,-0.19094975078312035
1705061553685428700,11.6204287109375,2.818918466567993,0.23945824801921844,-7.8792219161987305,-0.028026746585965157,0.7735648155212402,-0.6330971121788025,2.160747766494751,-0.5190330147743225,0.7479041814804077,0.8745417884235103,-0.418155733695485,0.0927211825133666,-0.227431825653652
1705061553695377700,11.630377685546875,2.6099796295166016,0.14439192414283752,-7.647718906402588,-0.08587060123682022,0.7517358660697937,-0.6538496613502502,2.0645694732666016,-0.5138819217681885,0.745081901550293,0.8705807469607261,-0.4093512694216362,0.07420717645840963,-0.2627050383552451
1705061553705295600,11.640295654296875,2.372755289077759,0.050625596195459366,-7.255188465118408,-0.13992194831371307,0.7270002365112305,-0.672229528427124,1.9619587659835815,-0.48331743478775024,0.7378117442131042,0.8652272859653698,-0.4009073111702743,0.056201096936437565,-0.2957982874539928
1705061553715244500,11.65024462890625,2.1382431983947754,-0.011460410431027412,-6.85957670211792,-0.1899084448814392,0.7001785635948181,-0.6882476806640625,1.832730770111084,-0.4918351173400879,0.7345733046531677,0.8587487283513486,-0.39289466612061813,0.038858114774254875,-0.326610648143521
1705061553725162800,11.660162841796875,1.910154938697815,-0.04255323112010956,-6.580514430999756,-0.23579545319080353,0.6720494627952576,-0.7019615173339844,1.7110610008239746,-0.5209265351295471,0.7354545593261719,0.8513109223832517,-0.38538197840308075,0.022359883312351378,-0.3553174528390314
1705061553735111700,11.670111572265625,1.6298614740371704,-0.036392539739608765,-6.411650657653809,-0.2785711884498596,0.6429232954978943,-0.71347576379776,1.626181721687317,-0.5291386246681213,0.7385306358337402,0.8427626540913934,-0.378442345809709,0.006596099383441221,-0.3827387239277742
1705061553745029600,11.680029541015625,1.3088557720184326,-0.0001829287502914667,-6.200587749481201,-0.31801775097846985,0.6137786507606506,-0.7225928902626038,1.5770509243011475,-0.4885040521621704,0.7235236167907715,0.8331113387201721,-0.37234117538421924,-0.008100058880794968,-0.40892771009980106
1705061553754978600,11.689978515625,1.019979476928711,-0.025648608803749084,-5.8974609375,-0.354209840297699,0.5851375460624695,-0.7294857501983643,1.5193252563476562,-0.43784451484680176,0.730569064617157,0.8225518758300017,-0.3671319633682916,-0.021708353523306703,-0.4337641282320619
1705061553764896500,11.699896484375,0.7740550637245178,-0.12221858650445938,-5.551208972930908,-0.38719117641448975,0.5575821995735168,-0.734292209148407,1.4568629264831543,-0.4121812582015991,0.7513667941093445,0.8115170618801305,-0.3628699022677798,-0.034341153246920886,-0.4567123138649815
1705061553774845700,11.709845703125,0.5297526121139526,-0.19136889278888702,-5.169135570526123,-0.4174301028251648,0.5313645601272583,-0.737159252166748,1.3991196155548096,-0.4071733355522156,0.7397074103355408,0.8001871004071267,-0.3595719279737497,-0.04613470758297965,-0.47778661847338494
1705061553784763600,11.719763671875,0.35682064294815063,-0.21852660179138184,-4.7957329750061035,-0.4445759057998657,0.5068820714950562,-0.7385274767875671,1.3429677486419678,-0.4124760031700134,0.7193624377250671,0.7888666979797703,-0.3570789495862481,-0.05684076205754202,-0.49694378920113375
1705061553794712600,11.729712646484375,0.24953201413154602,-0.23618842661380768,-4.455187797546387,-0.46902701258659363,0.48366230726242065,-0.7389752864837646,1.279970645904541,-0.4444167912006378,0.7187725901603699,0.777701983894998,-0.35505964185411526,-0.06667095946070611,-0.5144582837700963
1705061553804630500,11.739630615234375,0.1277872920036316,-0.2234719693660736,-4.1888251304626465,-0.4909701943397522,0.46173274517059326,-0.7387497425079346,1.210940957069397,-0.48021113872528076,0.7101699709892273,0.76676843153508,-0.35341874811456425,-0.07563279596466525,-0.5305102088517213
1705061553814579700,11.749579833984376,-0.01827085018157959,-0.16556978225708008,-3.968708038330078,-0.5107406377792358,0.4410240650177002,-0.7379984259605408,1.1532883644104004,-0.48826536536216736,0.6853556036949158,0.7558665597467642,-0.3521342279589209,-0.08367955687757424,-0.5455866725864151
1705061553824497700,11.75949755859375,-0.1148344874382019,-0.11024954169988632,-3.739799976348877,-0.5282298922538757,0.42170605063438416,-0.7369784116744995,1.105241060256958,-0.47692763805389404,0.6660250425338745,0.7451205559566084,-0.3511164944202926,-0.09070830384954397,-0.5597182551732961
1705061553834445800,11.76944580078125,-0.18276213109493256,-0.08677910268306732,-3.532026529312134,-0.5438956618309021,0.4034268856048584,-0.7358153462409973,1.0567131042480469,-0.4658200740814209,0.64455246925354,0.7345712533008919,-0.35026208131476605,-0.09699894380163666,-0.5729857801843222
1705061553844364500,11.779364501953125,-0.25424185395240784,-0.016056345775723457,-3.284851551055908,-0.5576913356781006,0.38642677664756775,-0.7346119284629822,1.015714406967163,-0.41860759258270264,0.5914233922958374,0.7243515402602069,-0.3495576570268825,-0.10248646414599785,-0.5853381347693646
1705061553854312700,11.789312744140625,-0.2639562785625458,0.08442365378141403,-2.9495837688446045,-0.5692209005355835,0.3709016442298889,-0.7337707877159119,0.9759134650230408,-0.3564516305923462,0.5404876470565796,0.7147338153245472,-0.3488034897205325,-0.10700804534639892,-0.596691768781753
1705061553864231700,11.799231689453125,-0.26210251450538635,0.1463554948568344,-2.590062379837036,-0.5783948302268982,0.3572135865688324,-0.7333879470825195,0.938410758972168,-0.3315330743789673,0.5161332488059998,0.7060706978064127,-0.34796890399618147,-0.11056069935782463,-0.6067603506932773
1705061553874149600,11.809149658203125,-0.26430147886276245,0.12056251615285873,-2.2579026222229004,-0.5858637690544128,0.345318078994751,-0.7331569194793701,0.9098231792449951,-0.34080150723457336,0.5040614604949951,0.6983469390207486,-0.3472130176385137,-0.11342247557348868,-0.6155403791584416
1705061553884098600,11.8190986328125,-0.3429262340068817,0.013713090680539608,-1.9690855741500854,-0.5924959778785706,0.33517542481422424,-0.732533872127533,0.8818179965019226,-0.3823404014110565,0.500478208065033,0.6913729973323716,-0.34684657779581235,-0.11589006421657981,-0.6231133202719376
1705061553894016800,11.829016845703125,-0.49291709065437317,-0.10390754789113998,-1.7766300439834595,-0.5989598035812378,0.32717958092689514,-0.7308902740478516,0.8463506102561951,-0.4256293475627899,0.48513227701187134,0.6848359612434366,-0.34733143725653587,-0.11796493339096858,-0.6296385432013492
1705061553903965700,11.838965576171875,-0.7080224752426147,-0.18221066892147064,-1.6603292226791382,-0.6055592894554138,0.32125192880630493,-0.7280763387680054,0.7990102767944336,-0.4457789361476898,0.46295487880706787,0.6783108793527993,-0.3488133029809862,-0.11954538393024462,-0.6355569037948243
1705061553913883600,11.848883544921875,-0.8987676501274109,-0.18366502225399017,-1.5316674709320068,-0.6119830012321472,0.31743308901786804,-0.7243707180023193,0.7376392483711243,-0.4303481876850128,0.44878172874450684,0.6717361651304014,-0.3511705376098733,-0.12039062244829518,-0.6410582436613212
1705061553923831800,11.858831787109375,-1.0529241561889648,-0.10607755184173584,-1.3495469093322754,-0.6176052093505859,0.31562691926956177,-0.7203772664070129,0.663396954536438,-0.41139107942581177,0.41782593727111816,0.6653112650604684,-0.354035578035767,-0.12029204832705888,-0.6461806928791346
1705061553933750500,11.86875048828125,-1.2335925102233887,0.019431903958320618,-1.1087361574172974,-0.6217781901359558,0.316223680973053,-0.7165154814720154,0.5990273952484131,-0.38208064436912537,0.3476494550704956,0.6593096469705394,-0.3572096575544584,-0.1189265318668673,-0.6508213924169913
1705061553943698700,11.87869873046875,-1.3539127111434937,0.11741697043180466,-0.8699557781219482,-0.6243745684623718,0.319369912147522,-0.7128528952598572,0.5466616153717041,-0.3502994775772095,0.2979053258895874,0.6538370988951393,-0.3606456077251621,-0.11622525458884209,-0.6549224153982116
1705061553953617700,11.88861767578125,-1.4270788431167603,0.13180841505527496,-0.7061024308204651,-0.6259458065032959,0.3243359625339508,-0.7092234492301941,0.5115050673484802,-0.3379010558128357,0.2554880976676941,0.648859963039068,-0.36427059810579543,-0.11267303806111564,-0.6584772267946174
1705061553963565600,11.898565673828125,-1.4919630289077759,0.07116644084453583,-0.5797434449195862,-0.6272860765457153,0.33060306310653687,-0.7051337957382202,0.4871037006378174,-0.32448434829711914,0.19674146175384521,0.6441512241705841,-0.36826065888584497,-0.10870688608339542,-0.661540600134074
1705061553973484500,11.908484619140625,-1.5338199138641357,-0.0415198914706707,-0.4617384970188141,-0.6288803815841675,0.33795902132987976,-0.7002093195915222,0.46063709259033203,-0.29889658093452454,0.12083309888839722,0.63966846025357,-0.3727622915751559,-0.1046117243376555,-0.6640246738662041
1705061553983432400,11.918432373046874,-1.4872064590454102,-0.22585774958133698,-0.36402952671051025,-0.6311681866645813,0.34590959548950195,-0.6942428946495056,0.42053598165512085,-0.25824791193008423,0.060682713985443115,0.6354055295438452,-0.37779005752599676,-0.10076324490273546,-0.6658686927822562
1705061553993351700,11.9283515625,-1.3147785663604736,-0.42470747232437134,-0.26209595799446106,-0.6345025897026062,0.3536129593849182,-0.6872876286506653,0.381267786026001,-0.2021695077419281,-0.008604764938354492,0.6315572537484899,-0.38315215168766914,-0.09772728251018628,-0.66691759408969
1705061554003299800,11.9382998046875,-1.0842143297195435,-0.5808206796646118,-0.20860238373279572,-0.6387401819229126,0.36030349135398865,-0.679847240447998,0.3288189768791199,-0.14178237318992615,-0.09281206130981445,0.6282495808960722,-0.3884648582720959,-0.09576755535866685,-0.6672525080562423
1705061554013217800,11.9482177734375,-0.8426020741462708,-0.6336644887924194,-0.203573539853096,-0.6435645222663879,0.3654839098453522,-0.6724924445152283,0.26577234268188477,-0.05347225069999695,-0.17786461114883423,0.6254097223454134,-0.39338943407615745,-0.09486057156496015,-0.6671646913045957
1705061554023166700,11.958166748046875,-0.6588732004165649,-0.6364583969116211,-0.1820906102657318,-0.6485630869865417,0.3691873848438263,-0.665632426738739,0.17895865440368652,0.03367513418197632,-0.25387752056121826,0.6229987246228075,-0.3977453517821652,-0.09477569252199078,-0.6668497732182076
1705061554033084700,11.968084716796875,-0.45970577001571655,-0.5327402353286743,-0.155474454164505,-0.6530439257621765,0.3718370497226715,-0.6597505211830139,0.058348000049591064,0.1004529595375061,-0.36678457260131836,0.621040013416855,-0.4013621479344962,-0.09504293675879445,-0.6664716756460785
1705061554043033600,11.97803369140625,-0.11658132076263428,-0.35361480712890625,-0.2399616241455078,-0.6566367149353027,0.3725748360157013,-0.6557562351226807,-0.06426471471786499,0.12167257070541382,-0.4502771496772766,0.6196182293873518,-0.4036639275108219,-0.09579833299291377,-0.6662967205516717
1705061554052951600,11.98795166015625,0.3105950355529785,-0.2041134536266327,-0.42944422364234924,-0.6596578359603882,0.3698129653930664,-0.6542857885360718,-0.16344696283340454,0.1422567367553711,-0.5512501001358032,0.6185879140012184,-0.4041364461299348,-0.09762595231698204,-0.6667022614934947
1705061554062870800,11.997870849609376,0.7061522603034973,-0.08352093398571014,-0.6348159909248352,-0.6625407338142395,0.36296990513801575,-0.6552042365074158,-0.24155771732330322,0.22743839025497437,-0.658913254737854,0.6177697965945604,-0.40277774439717345,-0.10083637916682114,-0.6678043056169886
1705061554072827000,12.007826904296875,0.9735716581344604,0.04887678846716881,-0.7342400550842285,-0.665132999420166,0.3528518080711365,-0.6580985188484192,-0.30537164211273193,0.336769163608551,-0.7437112331390381,0.617153336838975,-0.3998802182919982,-0.10510253967589417,-0.6694557770433703
1705061554082744800,12.017744873046874,1.0916757583618164,0.1797543466091156,-0.7256218194961548,-0.6669048070907593,0.34118378162384033,-0.6624436974525452,-0.36918216943740845,0.40127837657928467,-0.7985701560974121,0.6168243378078662,-0.3959209245212505,-0.10965756563909629,-0.6713788680160651
1705061554092693800,12.02769384765625,1.1252787113189697,0.26721733808517456,-0.6357808709144592,-0.667663037776947,0.329285591840744,-0.6676803231239319,-0.4063420295715332,0.4000997841358185,-0.8395981788635254,0.6168411414687771,-0.39135888129923474,-0.11400900999437368,-0.6733105326822716
1705061554102611700,12.03761181640625,1.0930910110473633,0.231103777885437,-0.5171974897384644,-0.6678041219711304,0.3180762231349945,-0.6729526519775391,-0.41335731744766235,0.3416069746017456,-0.8576260209083557,0.6172137538479644,-0.3867644200961284,-0.11805491692282499,-0.6749248805281534
1705061554112561000,12.047560791015625,1.007557988166809,0.12177170813083649,-0.38951677083969116,-0.6680023670196533,0.30801355838775635,-0.6774219274520874,-0.4003722667694092,0.27590978145599365,-0.8687511682510376,0.6178186465088465,-0.38266070149167825,-0.1219008478684046,-0.6760259296873147
1705061554122478800,12.057478759765624,0.9157912731170654,-0.003745202673599124,-0.29913175106048584,-0.6686320900917053,0.29928186535835266,-0.6807066202163696,-0.3817065954208374,0.21783846616744995,-0.8581728935241699,0.6185127312880244,-0.37931067686745656,-0.12557911274046715,-0.6766056949494215
1705061554132428000,12.067427978515624,0.8880491256713867,-0.0337664857506752,-0.0951828733086586,-0.6693180203437805,0.29186415672302246,-0.6832485795021057,-0.36402231454849243,0.15813276171684265,-0.8270358443260193,0.6195339875091349,-0.37646695707149314,-0.1290284480797733,-0.6766105075115665
1705061554142346000,12.077345947265625,0.881509006023407,-0.14614033699035645,0.07420136034488678,-0.6698899269104004,0.2858518660068512,-0.6852270364761353,-0.35154855251312256,0.10352185368537903,-0.7703241109848022,0.6211101671367545,-0.3740277071526286,-0.13224885894559787,-0.6758960694431132
1705061554152295000,12.087294921875,0.8834014534950256,-0.35292547941207886,0.1661483198404312,-0.6711529493331909,0.2807311415672302,-0.6861075758934021,-0.32635974884033203,0.11097720265388489,-0.7178535461425781,0.6230194186500092,-0.372199828054866,-0.13569630328356624,-0.6744631076240122
1705061554162212900,12.097212890625,0.9313396215438843,-0.5730233192443848,0.18613694608211517,-0.6736083626747131,0.27591484785079956,-0.6856549382209778,-0.2970030903816223,0.12619999051094055,-0.6434618830680847,0.6250199057162521,-0.3710216708436635,-0.13969767710552095,-0.6724414547199654
1705061554172161800,12.107161865234374,1.0232738256454468,-0.721845805644989,0.17211514711380005,-0.6774249076843262,0.27056145668029785,-0.684026300907135,-0.26175349950790405,0.11435675621032715,-0.5516457557678223,0.6269966624881823,-0.3702495242393253,-0.1445757480525144,-0.6699912333623484
1705061554182079700,12.117079833984375,1.1576844453811646,-0.7537484765052795,0.18414942920207977,-0.6819700002670288,0.2643898129463196,-0.681920051574707,-0.21059280633926392,0.08648604154586792,-0.45090776681900024,0.6290436732708926,-0.36944588655363675,-0.15016565246206312,-0.6672810406073963
1705061554192029000,12.12702880859375,1.2812387943267822,-0.6900286078453064,0.24860219657421112,-0.6862783432006836,0.25760507583618164,-0.6801922917366028,-0.13906943798065186,0.06000658869743347,-0.3561388850212097,0.6314473846374787,-0.36817093612745455,-0.156057736110117,-0.6643569481245863
1705061554201947000,12.13694677734375,1.3947423696517944,-0.6224719285964966,0.3385358154773712,-0.6899218559265137,0.2505963146686554,-0.6791239380836487,-0.05705678462982178,0.041975706815719604,-0.2652730941772461,0.6343453387894114,-0.3663409266758169,-0.1619640673549233,-0.6611868109253196
1705061554211896000,12.14689599609375,1.4839292764663696,-0.5916948318481445,0.43466100096702576,-0.6930291056632996,0.24354539811611176,-0.6785250306129456,0.01677495241165161,0.020462140440940857,-0.18857091665267944,0.6377472210788266,-0.3640760589327125,-0.16788721789161368,-0.6576783887508594
1705061554221814000,12.15681396484375,1.5340399742126465,-0.5749157071113586,0.5392574667930603,-0.6957658529281616,0.23674362897872925,-0.6781314611434937,0.0795244574546814,-0.011813834309577942,-0.12101709842681885,0.641562743753438,-0.3615820146175347,-0.1737605036940232,-0.6538064450410936
1705061554231732000,12.16673193359375,1.5686224699020386,-0.5545622110366821,0.6280749440193176,-0.6981915831565857,0.2303517460823059,-0.6778395771980286,0.12372881174087524,-0.053441375494003296,-0.054612815380096436,0.6457388018979187,-0.35895647398133346,-0.17952840235789097,-0.6495699315562108
1705061554241681000,12.176680908203124,1.5710952281951904,-0.5127013325691223,0.7293775677680969,-0.7002570629119873,0.22445982694625854,-0.6776856184005737,0.15983664989471436,-0.09492798149585724,0.005551159381866455,0.6502328326018478,-0.35621999485067996,-0.18510676659828895,-0.6450116402565609
1705061554251598800,12.186598876953125,1.5341295003890991,-0.4476335942745209,0.8681759238243103,-0.7017043828964233,0.21956534683704376,-0.6777920126914978,0.18847501277923584,-0.12287043035030365,0.05656087398529053,0.6550645242577031,-0.3534541086836909,-0.1901951149749132,-0.6401456354420313
1705061554261547800,12.1965478515625,1.4770463705062866,-0.3675777316093445,1.0452263355255127,-0.7023559212684631,0.21608315408229828,-0.6782360672950745,0.21123665571212769,-0.14270366728305817,0.10941892862319946,0.6603467061913235,-0.35072223022018173,-0.19461725014330084,-0.6348702010778449
1705061554271465700,12.2064658203125,1.4105464220046997,-0.2840580642223358,1.2287403345108032,-0.702073872089386,0.21428939700126648,-0.6790966987609863,0.23945802450180054,-0.15461231768131256,0.15166133642196655,0.66610637444048,-0.348080601914121,-0.19822098654841716,-0.6291665207798705
1705061554281415000,12.216414794921874,1.3506327867507935,-0.2069525271654129,1.400325059890747,-0.7008856534957886,0.21415051817893982,-0.6803666353225708,0.2758064270019531,-0.16336926817893982,0.1917191743850708,0.6723559272491787,-0.3455392023643647,-0.20104558974919984,-0.6229933839548705
1705061554291332900,12.226332763671875,1.275022268295288,-0.13046973943710327,1.5316343307495117,-0.6988371014595032,0.21548064053058624,-0.6820518970489502,0.31607043743133545,-0.15456756949424744,0.22340315580368042,0.6789564163650637,-0.34310422498556165,-0.2031096980951152,-0.6164771668412453
1705061554301282000,12.236281982421875,1.1943634748458862,-0.05934141203761101,1.626798152923584,-0.6959521174430847,0.21806566417217255,-0.6841769218444824,0.3581225872039795,-0.13241808116436005,0.24646323919296265,0.6858142902905038,-0.34074926405050354,-0.20445411328462892,-0.6097108199108385
1705061554311200000,12.246199951171874,1.1257582902908325,0.00540349492803216,1.7102041244506836,-0.6921698451042175,0.22168400883674622,-0.6868457794189453,0.3987281322479248,-0.10913519561290741,0.2697925567626953,0.692829720021131,-0.3384146812551349,-0.20506732588753065,-0.6028348997207976
1705061554321149000,12.25614892578125,1.0745933055877686,0.06052900478243828,1.8333303928375244,-0.6879163384437561,0.2262781262397766,-0.6896153092384338,0.43684834241867065,-0.0992182195186615,0.28034406900405884,0.7000046502401877,-0.336262585612651,-0.20523116897878985,-0.5956517620944154
1705061554331067000,12.26606689453125,1.0210493803024292,0.09951689094305038,2.0079379081726074,-0.6829696893692017,0.23212163150310516,-0.6925835013389587,0.4691789150238037,-0.10565680265426636,0.28628766536712646,0.7074647968523358,-0.3342984647137226,-0.20482380912856163,-0.5880350519821242
1705061554341015800,12.276015869140625,0.9539065957069397,0.11521967500448227,2.209489345550537,-0.6772667169570923,0.23951929807662964,-0.6956582069396973,0.49223870038986206,-0.12483426928520203,0.2987770438194275,0.7153349610486895,-0.33260867082196083,-0.20381946986227154,-0.579762865036057
1705061554350933800,12.285933837890624,0.8530489802360535,0.13677716255187988,2.4415547847747803,-0.6707397699356079,0.24880491197109222,-0.6987161636352539,0.5095460414886475,-0.1516980081796646,0.31643760204315186,0.7235949129146237,-0.3313480554699638,-0.20211480869447077,-0.570761292062517
1705061554360883000,12.295883056640625,0.7058836221694946,0.17255617678165436,2.665952682495117,-0.6631787419319153,0.26032447814941406,-0.7017301321029663,0.5189527273178101,-0.18412211537361145,0.33751803636550903,0.7322388565682048,-0.33063141312370437,-0.19954399938652823,-0.5609736319784011
1705061554370801000,12.30580078125,0.5340732336044312,0.2019529491662979,2.841461658477783,-0.6545670032501221,0.274015873670578,-0.7045972347259521,0.5310776829719543,-0.2151932716369629,0.36074042320251465,0.7410413324204844,-0.33055275867048817,-0.1960516344793104,-0.5505963436501645
1705061554380749800,12.315749755859375,0.37196841835975647,0.22678183019161224,2.95354962348938,-0.644922137260437,0.28958970308303833,-0.7072575688362122,0.5458469390869141,-0.24437794089317322,0.3890049457550049,0.7498614244083871,-0.33108818510507176,-0.19170769991347683,-0.5397560956291172
1705061554390668000,12.32566796875,0.21221578121185303,0.24019430577754974,3.0088813304901123,-0.6344314813613892,0.3064802885055542,-0.7096242308616638,0.5650345683097839,-0.2709426283836365,0.41596877574920654,0.7584806308960125,-0.33216692005137105,-0.18668962138911077,-0.5286958588028766
1705061554400617000,12.335616943359375,0.05040948465466499,0.238900288939476,3.0132036209106445,-0.6232749223709106,0.3244129717350006,-0.7115367650985718,0.5840904712677002,-0.2920186221599579,0.4287760853767395,0.7667600703299132,-0.3338031984001319,-0.1811271770381115,-0.5175395658051231
1705061554410535000,12.345534912109375,-0.11911829560995102,0.2404121607542038,2.9863548278808594,-0.611657977104187,0.3430328667163849,-0.7128835916519165,0.6097049117088318,-0.3082428574562073,0.42954307794570923,0.7745338496160072,-0.33597929480340416,-0.17514600582473328,-0.5064969019012353
1705061554420452900,12.355452880859374,-0.31526535749435425,0.27191057801246643,2.935211181640625,-0.5994695425033569,0.36234331130981445,-0.7136831283569336,0.6394323706626892,-0.31253868341445923,0.4273519515991211,0.7817596967540239,-0.3386899343373726,-0.16866401731874553,-0.4956747053545747
1705061554430401800,12.36540185546875,-0.5490557551383972,0.3214549720287323,2.8072962760925293,-0.586703360080719,0.38234832882881165,-0.7138549089431763,0.677569568157196,-0.2933744192123413,0.40463554859161377,0.7882998179232474,-0.3419945845589088,-0.1615928385376462,-0.4852944553608374
1705061554440319700,12.37531982421875,-0.9302762746810913,0.39847084879875183,2.658328056335449,-0.5735385417938232,0.4032087028026581,-0.7130752205848694,0.7294987440109253,-0.22547435760498047,0.3525099754333496,0.7938324243870283,-0.3461371533536206,-0.15379034878953793,-0.47578109472073354
1705061554450269000,12.38526904296875,-1.3719987869262695,0.42345502972602844,2.741687774658203,-0.5595377683639526,0.426458477973938,-0.7106691598892212,0.7853679060935974,-0.09810462594032288,0.2851319909095764,0.798413123090175,-0.351712421180305,-0.1447888005527132,-0.46676657562160045
1705061554460187000,12.395186767578124,-1.7047911882400513,0.3392800986766815,3.109278917312622,-0.5440716743469238,0.45331278443336487,-0.7060407400131226,0.8199201226234436,-0.010731667280197144,0.2524273991584778,0.8026292715539618,-0.35899356073882227,-0.13454832981705692,-0.456953633728479
1705061554470135800,12.4051357421875,-1.8165518045425415,0.12429934740066528,3.509150743484497,-0.5269516110420227,0.4833739399909973,-0.6990505456924438,0.840962290763855,0.01775515079498291,0.2383112907409668,0.8070222366928292,-0.3676844567961233,-0.12362395038618687,-0.44524192498552867
1705061554480054000,12.415053955078125,-1.7232797145843506,-0.13451851904392242,3.686292886734009,-0.5090926885604858,0.514236330986023,-0.6902068853378296,0.8484025597572327,0.02850341796875,0.2715056538581848,0.8115909671139347,-0.3769713114240728,-0.11308934819967643,-0.4317677627548714
1705061554490003000,12.4250029296875,-1.462564468383789,-0.35078877210617065,3.6448402404785156,-0.4914455711841583,0.5434464812278748,-0.680549144744873,0.835821270942688,0.06167119741439819,0.33476966619491577,0.8161784791576725,-0.38595865612514585,-0.1037369398134999,-0.4172854382926661
1705061554499921000,12.4349208984375,-1.11702561378479,-0.48049482703208923,3.541916847229004,-0.47443291544914246,0.5693289637565613,-0.6713999509811401,0.7906255722045898,0.10449910163879395,0.40142613649368286,0.8207779551286037,-0.3938387711101357,-0.09586992575076897,-0.4025213962594304
1705061554509869800,12.444869873046875,-0.8030394315719604,-0.5124384164810181,3.4726967811584473,-0.4575289189815521,0.5919172763824463,-0.6635519862174988,0.7175081968307495,0.1305711269378662,0.4544607400894165,0.825548732055316,-0.400349106913583,-0.08913247447000662,-0.38761482959871907
1705061554519787800,12.454787841796875,-0.570532500743866,-0.41412353515625,3.4752674102783203,-0.43989136815071106,0.611807644367218,-0.6574091911315918,0.6481128931045532,0.12299448251724243,0.472991406917572,0.830530283400303,-0.4055024116374026,-0.082844501824535,-0.3727248191411159
1705061554529735700,12.464735595703125,-0.45054805278778076,-0.23020429909229279,3.5762557983398438,-0.42028185725212097,0.6301442980766296,-0.6529021263122559,0.6104980707168579,0.07272118330001831,0.45803213119506836,0.8357736586050327,-0.40957268381752954,-0.07615215460115904,-0.3576775859868866
1705061554539655000,12.474655029296875,-0.3555516004562378,0.00966582540422678,3.7835781574249268,-0.3977057635784149,0.647664487361908,-0.6498929262161255,0.6142585277557373,-0.02727264165878296,0.4164486527442932,0.8412885540279852,-0.41276233429898973,-0.06841640227864768,-0.34231550332742977
1705061554549603000,12.48460302734375,-0.2643290162086487,0.2192680537700653,4.049294948577881,-0.371366947889328,0.6646328568458557,-0.6483438611030579,0.6475510597229004,-0.159917950630188,0.3954446315765381,0.8472041077607687,-0.4150988665417573,-0.05933808629147555,-0.3262162579437825
1705061554559521800,12.494521728515625,-0.2145351767539978,0.37193986773490906,4.329431533813477,-0.3414708375930786,0.6809651255607605,-0.6478303074836731,0.6933690905570984,-0.2776601314544678,0.3848755359649658,0.8533998134361642,-0.41674737114758725,-0.04905577814616457,-0.3092310540168389
1705061554569470000,12.504469970703125,-0.17115174233913422,0.5119715332984924,4.630629539489746,-0.3079071342945099,0.6966953277587891,-0.6479265689849854,0.742477536201477,-0.3704167604446411,0.3619920611381531,0.8597826779847019,-0.41788099888949487,-0.037579245854194476,-0.2910962275590103
1705061554579389000,12.514388916015625,-0.14960810542106628,0.6833584904670715,4.978707790374756,-0.27052849531173706,0.7114900350570679,-0.6485339999198914,0.7878625392913818,-0.45227378606796265,0.3347522020339966,0.8662503826407235,-0.4184682462633034,-0.024846094453450273,-0.271803911712833
1705061554589336800,12.5243369140625,-0.20166225731372833,0.8909516334533691,5.409362316131592,-0.2283700704574585,0.7254768013954163,-0.6492538452148438,0.8323739767074585,-0.5025916695594788,0.2979506850242615,0.8727075904921235,-0.41864587853831164,-0.01042578633780341,-0.2510149460792895
1705061554599255800,12.534255859375,-0.32172253727912903,1.1377068758010864,5.972001075744629,-0.180575892329216,0.7386865019798279,-0.6494109630584717,0.8858676552772522,-0.5358514785766602,0.2448698878288269,0.8789383156446162,-0.41863789765763915,0.0060694611596696845,-0.22841369177239237
1705061554609173800,12.544173828125,-0.5159106850624084,1.387357234954834,6.667045593261719,-0.12581495940685272,0.7509129047393799,-0.6483057141304016,0.9530397057533264,-0.5875371694564819,0.19077086448669434,0.8847460749373575,-0.4185873156612289,0.025135827365715752,-0.20341348346369725
1705061554619121700,12.55412158203125,-0.8328664898872375,1.6275743246078491,7.4858293533325195,-0.06282997131347656,0.7618660926818848,-0.6446800231933594,1.0401859283447266,-0.6501718759536743,0.1593436598777771,0.8897464292754693,-0.41885042272527623,0.04716275954760031,-0.17518875021436742
1705061554629041000,12.564041015625,-1.199324607849121,1.8169620037078857,8.175111770629883,0.007798129692673683,0.7704618573188782,-0.6374382972717285,1.1501609086990356,-0.7322844862937927,0.1561151146888733,0.8933309910851991,-0.4196531726339737,0.07191702731388418,-0.14380123487507135
1705061554638989000,12.573989013671875,-1.590480923652649,1.8573302030563354,8.601173400878906,0.0840572640299797,0.7753732800483704,-0.6258838772773743,1.314914345741272,-0.7931498885154724,0.18691903352737427,0.8949363674078596,-0.42111865455427044,0.09857561345225588,-0.10968469331285526
1705061554648907800,12.58390771484375,-2.1771302223205566,1.8115160465240479,8.878617286682129,0.1626674085855484,0.7760875225067139,-0.6092843413352966,1.5395725965499878,-0.7956188917160034,0.20199668407440186,0.8939857687195192,-0.42368076276762323,0.12590644802706408,-0.07369904730613368
1705061554658856000,12.59385595703125,-2.9213411808013916,1.7034343481063843,9.074013710021973,0.2424229085445404,0.7731522917747498,-0.5860601663589478,1.8007136583328247,-0.7164965271949768,0.17256230115890503,0.8898031626316438,-0.428281024518854,0.15344469373091676,-0.03578053149666801
1705061554668775000,12.60377490234375,-3.4287655353546143,1.3991628885269165,9.016290664672852,0.32056140899658203,0.7659292817115784,-0.5573084354400635,2.0754499435424805,-0.6665030717849731,0.1785547137260437,0.8824073138032955,-0.4346911478177494,0.17997050698814634,0.003389552932209614
1705061554678722800,12.613722900390625,-3.7595090866088867,1.0730520486831665,8.697687149047852,0.3942837417125702,0.7537842392921448,-0.5256897211074829,2.27034330368042,-0.6751556992530823,0.24300527572631836,0.872358049129703,-0.4420726432106763,0.20427167547800765,0.04285231871419094
1705061554688640800,12.623640869140624,-3.9051401615142822,0.579897403717041,8.430350303649902,0.4618356227874756,0.7368989586830139,-0.49364742636680603,2.426576852798462,-0.5414034128189087,0.30501818656921387,0.8603047111961434,-0.4497440917210716,0.22562476339973703,0.08185045579796761
1705061554698589700,12.633589599609374,-3.719244956970215,-0.1568242460489273,8.098077774047852,0.5227414965629578,0.714507520198822,-0.46499499678611755,2.5716798305511475,-0.3384242057800293,0.3830552101135254,0.8472606540285192,-0.4564101181216708,0.24329470288028393,0.12102433053814754
1705061554708508000,12.6435078125,-3.6536600589752197,-0.6922109723091125,7.433613300323486,0.5749385356903076,0.6885741353034973,-0.44194018840789795,2.670926332473755,-0.12889713048934937,0.4174039959907532,0.8340724420381109,-0.4617098271117692,0.2566202177485217,0.15903802698398917
1705061554718457000,12.65345703125,-3.9608280658721924,-1.2168771028518677,7.0695319175720215,0.6193132996559143,0.6620235443115234,-0.4221086800098419,2.7510786056518555,0.2274874448776245,0.32577985525131226,0.820194643312714,-0.4670849796078248,0.26604001316083364,0.19579317114367054
1705061554728375000,12.663375,-4.128402233123779,-1.5333043336868286,7.141570091247559,0.6592669486999512,0.6335813403129578,-0.40489712357521057,2.7213940620422363,0.45047926902770996,0.21057644486427307,0.8050354044918572,-0.4724717726350614,0.27262035461732514,0.23316617433009498
1705061554738324000,12.673323974609374,-4.245390892028809,-1.633267879486084,7.032532215118408,0.6967419385910034,0.6021685600280762,-0.3897992670536041,2.5269365310668945,0.3918651342391968,0.19932377338409424,0.7884008189245859,-0.47734696576309965,0.2779212819537716,0.2707833552654828
1705061554748242000,12.683241943359375,-4.101494789123535,-2.036558151245117,6.842614650726318,0.7300684452056885,0.5691086649894714,-0.37830594182014465,2.3999059200286865,0.5736982822418213,0.2362465262413025,0.7710009866944579,-0.4813607385957883,0.28131631569507365,0.3077506056521939
1705061554758190800,12.69319091796875,-3.752255439758301,-2.1963441371917725,6.702588081359863,0.7593594789505005,0.5333693027496338,-0.37267979979515076,2.438974142074585,0.6681991815567017,0.288451224565506,0.7535780758665507,-0.4832094825556525,0.2831407636625769,0.3441800782448871
1705061554768108800,12.70310888671875,-3.510021448135376,-2.2271676063537598,6.283276081085205,0.7843844294548035,0.4971140921115875,-0.3709697425365448,2.4472286701202393,0.6560993194580078,0.38114726543426514,0.7363414178667527,-0.4835701233268727,0.28403355872322406,0.3785315411500701
1705061554778026800,12.71302685546875,-3.302236557006836,-2.30527925491333,6.074044227600098,0.805400550365448,0.4608820676803589,-0.3727164566516876,2.3060801029205322,0.7632085084915161,0.40872716903686523,0.7193101623825955,-0.4826679823685966,0.2840306112823458,0.41103653359138576
1705061554787975700,12.7229755859375,-3.2398762702941895,-2.3491733074188232,5.811434268951416,0.8229233622550964,0.42483437061309814,-0.3772435784339905,2.231031656265259,0.8156440854072571,0.4067082703113556,0.702145371848287,-0.4808589862794309,0.28311277833757614,0.44228216423873895
1705061554797894000,12.732893798828124,-3.2296102046966553,-2.38924503326416,5.6128950119018555,0.8370999693870544,0.3899662494659424,-0.3836532533168793,2.272091865539551,0.9348170161247253,0.433442622423172,0.6848176846115742,-0.4786074201858146,0.2812620063346187,0.4720712261308448
1705061554807843000,12.742843017578124,-3.2714881896972656,-2.471238613128662,5.4804253578186035,0.8483938574790955,0.3557358682155609,-0.3920198380947113,2.2068276405334473,0.9859083890914917,0.4703279137611389,0.667033290306783,-0.4758530933888098,0.27848503469179203,0.5010751272646393
1705061554817761000,12.752760986328125,-3.321505308151245,-2.5626463890075684,5.273870468139648,0.8568680882453918,0.32219216227531433,-0.40245407819747925,2.0786633491516113,1.0241975784301758,0.5123478174209595,0.6488510248852962,-0.4724891079087096,0.2748217565804257,0.5293575038771865
1705061554827710000,12.7627099609375,-3.1279406547546387,-2.776862382888794,5.175225257873535,0.8620218634605408,0.2903304994106293,-0.41548335552215576,2.007835865020752,1.0917800664901733,0.5556504726409912,0.6307320235004903,-0.4683992533906571,0.2699267819119859,0.5567034231341202
1705061554837628000,12.7726279296875,-2.9129090309143066,-2.8329646587371826,4.998315334320068,0.8640994429588318,0.25928691029548645,-0.43139582872390747,1.905752182006836,1.1459102630615234,0.5965263843536377,0.613082846611141,-0.46296674299891,0.26450687331366995,0.5829470760752784
1705061554847576800,12.782576904296874,-2.7194557189941406,-2.8633291721343994,4.813676357269287,0.8635875582695007,0.22935204207897186,-0.4490146338939667,1.8176562786102295,1.2004270553588867,0.6249483823776245,0.5958219703232698,-0.45658629535378725,0.2588853709245752,0.6078679824518133
1705061554857494800,12.792494873046875,-2.660689115524292,-2.863696336746216,4.6876959800720215,0.8606781959533691,0.20090939104557037,-0.4678337275981903,1.6796354055404663,1.1652863025665283,0.6160575151443481,0.5788158427724248,-0.44955623899059194,0.2529472688860555,0.6315766202055996
1705061554867443700,12.802443603515625,-2.3692574501037598,-2.9674618244171143,4.552892208099365,0.8554551601409912,0.17334148287773132,-0.4880053997039795,1.5392744541168213,1.1293776035308838,0.6022478342056274,0.5620618616614689,-0.4416249455625288,0.24691031844701736,0.6542853095276437
1705061554877361700,12.812361572265624,-2.2131500244140625,-2.9004595279693604,4.423534870147705,0.848036527633667,0.1467064470052719,-0.5092260241508484,1.3907634019851685,1.127555012702942,0.6199437379837036,0.5458340044431325,-0.43278030284921454,0.24101491569029365,0.6757796907229161
1705061554887311000,12.82231103515625,-2.06156325340271,-2.8259084224700928,4.255332946777344,0.8390145301818848,0.12128346413373947,-0.5304194688796997,1.2601064443588257,1.1665278673171997,0.6608668565750122,0.5298725186397923,-0.4235677312895688,0.23533090649439703,0.696020642188553
1705061554897229000,12.83222900390625,-1.9411656856536865,-2.789396286010742,4.132884979248047,0.8285007476806641,0.09733986854553223,-0.5514630079269409,1.101797103881836,1.1220815181732178,0.6959179639816284,0.5142895232286528,-0.41409064318211486,0.2297769174626999,0.7150089113259713
1705061554907178000,12.842177978515625,-1.8203226327896118,-2.744821786880493,4.056797981262207,0.8165172934532166,0.07433915883302689,-0.5725147128105164,0.9882311224937439,1.1225144863128662,0.7235614657402039,0.4988377314028079,-0.40423302113333015,0.22436199955670827,0.7330880633663528
1705061554917096000,12.852095947265624,-1.7029330730438232,-2.6977200508117676,3.983677387237549,0.8032981753349304,0.052159905433654785,-0.5932885408401489,0.908829391002655,1.1507056951522827,0.7431908845901489,0.4835542650952526,-0.3940697985916791,0.21923666405141132,0.7502129292468844
1705061554927044900,12.862044921875,-1.6820006370544434,-2.619687795639038,3.8784377574920654,0.7889600396156311,0.031109562143683434,-0.6136563420295715,0.8552201390266418,1.1782104969024658,0.762475311756134,0.4683228066273861,-0.38378478820549883,0.21419863890733903,0.7664866054743137
1705061554936962800,12.871962890625,-1.7283761501312256,-2.562761068344116,3.747363805770874,0.7737807631492615,0.012083363719284534,-0.6333381533622742,0.789115846157074,1.1712509393692017,0.7901527285575867,0.45318065869523555,-0.3737498722910246,0.20890660339911282,0.7818543260629499
1705061554946911700,12.881911865234375,-1.7321066856384277,-2.528076171875,3.60851788520813,0.7576245665550232,-0.004884026478976011,-0.652672290802002,0.7048844695091248,1.1229108572006226,0.8259968757629395,0.43817269003193116,-0.36381924054961434,0.20322259593931583,0.7964550785768554
1705061554956829700,12.89182958984375,-1.7376331090927124,-2.494218111038208,3.4371094703674316,0.7407029271125793,-0.01973888650536537,-0.6715426445007324,0.6500135660171509,1.124521017074585,0.8560671806335449,0.4235333966983054,-0.3540096525968435,0.1972456093076832,0.8101795225470065
1705061554966748000,12.901747802734375,-1.802528977394104,-2.451413154602051,3.213902711868286,0.7231343984603882,-0.03195567429065704,-0.6899677515029907,0.5982308983802795,1.1505317687988281,0.8710285425186157,0.40939076559040455,-0.3444331929525797,0.19074038054606446,0.8230328892784948
1705061554976697000,12.911697021484375,-1.9011435508728027,-2.4083032608032227,2.977994918823242,0.7051169872283936,-0.041132550686597824,-0.7078970074653625,0.5458289980888367,1.1242624521255493,0.8848073482513428,0.3957512821403854,-0.3352301163866486,0.18350005570039596,0.8350625458302259
1705061554986615000,12.921614990234374,-2.0154831409454346,-2.3575565814971924,2.7777435779571533,0.6869033575057983,-0.04705548658967018,-0.7252238392829895,0.48335421085357666,1.0872166156768799,0.9057962894439697,0.38267720313739434,-0.32650689656242077,0.17544611639499735,0.8462683114671127
1705061554996564000,12.93156396484375,-2.0955262184143066,-2.3078501224517822,2.579394817352295,0.6685793995857239,-0.05015542358160019,-0.7419474124908447,0.4077449440956116,1.0700833797454834,0.916050136089325,0.3699904928512933,-0.3181909504469694,0.16667580591769363,0.8567850524653494
1705061555006482000,12.94148193359375,-2.1213386058807373,-2.318337917327881,2.3314568996429443,0.6501498222351074,-0.050476886332035065,-0.7581274509429932,0.3189358115196228,1.0765236616134644,0.9299872517585754,0.35806549166045126,-0.31015514681193396,0.15728971099335523,0.8665175659775382
1705061555016430800,12.951430908203125,-2.0224571228027344,-2.2894530296325684,2.1575124263763428,0.6314408779144287,-0.04898275434970856,-0.7738752961158752,0.243665874004364,1.0776540040969849,0.9504194855690002,0.34692403957251605,-0.3020857773877665,0.14767032939491695,0.8755461956111991
1705061555026348800,12.961348876953124,-1.903952717781067,-2.2254559993743896,1.9333440065383911,0.6129727363586426,-0.04642095789313316,-0.7887392044067383,0.15640586614608765,1.0599555969238281,0.9743775725364685,0.33667680647108233,-0.2941106696242493,0.13830878910556965,0.8837523639888448
1705061555036297700,12.971297607421874,-1.730527639389038,-2.1378958225250244,1.6946464776992798,0.5948705673217773,-0.04290926456451416,-0.8026753664016724,0.08190244436264038,1.0446792840957642,0.9839497804641724,0.32748631073268747,-0.2862675158787672,0.1292796162577779,0.8911174794282328
1705061555046215700,12.981215576171875,-1.5249431133270264,-2.0228826999664307,1.461680293083191,0.5775144696235657,-0.03901813179254532,-0.8154475092887878,0.01437389850616455,1.0044569969177246,0.9773279428482056,0.3194901503783276,-0.2786638051352033,0.12092449502510218,0.8975799878638597
1705061555056164900,12.991164794921875,-1.296802282333374,-1.900043249130249,1.241972804069519,0.5609935522079468,-0.03514419496059418,-0.8270738124847412,-0.05331844091415405,0.9590181112289429,0.9718339443206787,0.312653564517741,-0.2713113828667282,0.11337209460548538,0.9032078801844644
1705061555066083000,13.0010830078125,-1.0853936672210693,-1.7641946077346802,1.0701565742492676,0.5454859733581543,-0.03168238699436188,-0.8375208973884583,-0.11666828393936157,0.9178823828697205,0.9665949940681458,0.30690045890610484,-0.2642748398456713,0.10676308379101387,0.9080597900929546
1705061555076056600,13.011056640625,-0.9251794219017029,-1.6163651943206787,0.9525353312492371,0.5310224890708923,-0.028731781989336014,-0.8468704223632812,-0.1782546043395996,0.8755946159362793,0.9641647338867188,0.30190151551971045,-0.25761282070725344,0.1009970719190422,0.9122996333878111
1705061555085974500,13.020974609375,-0.7948911786079407,-1.4609220027923584,0.8596408367156982,0.5177828669548035,-0.026210807263851166,-0.8551104068756104,-0.24165987968444824,0.8247337937355042,0.9682695865631104,0.2974591435766064,-0.25146609637315426,0.09596659024311888,0.9160093443592703
1705061555095923500,13.03092333984375,-0.6916093230247498,-1.2842246294021606,0.7907363176345825,0.5058251023292542,-0.024104954674839973,-0.8622992038726807,-0.3017083406448364,0.7831076383590698,0.9811803698539734,0.29341312355440297,-0.2458882248310339,0.09159361497322241,0.9192705103886516
1705061555105841400,13.04084130859375,-0.6259245872497559,-1.072365164756775,0.701047420501709,0.49552178382873535,-0.022187652066349983,-0.8683120608329773,-0.3545306324958801,0.7526106834411621,0.9916335940361023,0.28973655851781843,-0.2411139169088253,0.08779544768682217,0.9220676526795822
1705061555115790600,13.05079052734375,-0.5509361624717712,-0.8451585173606873,0.5993781089782715,0.48710066080093384,-0.02028881572186947,-0.8731101751327515,-0.3885594606399536,0.7325996160507202,0.9994071125984192,0.2864475467486498,-0.23728494941297834,0.0845030975183884,0.9243933276838888
1705061555125708500,13.06070849609375,-0.44113218784332275,-0.6322785019874573,0.4868062436580658,0.4806273281574249,-0.01863669976592064,-0.8767269253730774,-0.4068358540534973,0.7136592864990234,1.0023066997528076,0.2836627685958833,-0.23438897323223126,0.08184350939419126,0.9262283019260591
1705061555135656700,13.07065673828125,-0.32926785945892334,-0.4526098668575287,0.3609689474105835,0.47592341899871826,-0.017574207857251167,-0.8793111443519592,-0.40033140778541565,0.6987418532371521,1.0062031745910645,0.28144712602314914,-0.23227696441694537,0.07994904294525176,0.9276006993209542
1705061555145575400,13.080575439453124,-0.23249207437038422,-0.28955143690109253,0.2642008662223816,0.47264835238456726,-0.016619810834527016,-0.8810943961143494,-0.38921335339546204,0.6710845828056335,1.0024932622909546,0.27983434552733594,-0.23084206894205322,0.0785159394550801,0.928568715539401
1705061555155493400,13.090493408203125,-0.140170156955719,-0.10563277453184128,0.18693137168884277,0.4708910882472992,-0.016062617301940918,-0.8820450901985168,-0.3831530809402466,0.6345471143722534,1.008998155593872,0.2786542725013838,-0.230104140927023,0.0776500328946311,0.9291793959699551
1705061555165442600,13.100442626953125,-0.03851437196135521,0.0982351303100586,0.0996507927775383,0.4708386957645416,-0.01594702899456024,-0.8820751905441284,-0.3878461718559265,0.6040512919425964,1.023386836051941,0.2778849590750049,-0.23015787435073515,0.07739352275608112,0.9294179031053821
1705061555175360500,13.110360595703124,0.06863376498222351,0.29927685856819153,0.007754161022603512,0.4725880026817322,-0.01632733643054962,-0.8811322450637817,-0.39699602127075195,0.5950322151184082,1.0364055633544922,0.27758193101387435,-0.23104301594004137,0.07780109270637901,0.9292547501459557
1705061555185309400,13.120309326171874,0.15307407081127167,0.4894776940345764,-0.09315141290426254,0.47606292366981506,-0.01712447591125965,-0.8792444467544556,-0.40266820788383484,0.6133769750595093,1.0519129037857056,0.277759385063705,-0.23273190903173116,0.07882654317064589,0.9286936509854303
1705061555195227600,13.1302275390625,0.17500773072242737,0.6816322207450867,-0.2002837210893631,0.48119720816612244,-0.017901716753840446,-0.876429557800293,-0.3923148214817047,0.6528199911117554,1.0419721603393555,0.2784009253051143,-0.23525725917550375,0.08024493081720117,0.9277432959266391
1705061555205175300,13.14017529296875,0.1529516875743866,0.8528436422348022,-0.31126564741134644,0.4879467487335205,-0.018133368343114853,-0.8726850152015686,-0.3673413395881653,0.6873228549957275,1.0180859565734863,0.2794597348718005,-0.238680646217406,0.08178658815836422,0.9264149073851167
1705061555215094500,13.150094482421874,0.08961966633796692,0.9962812066078186,-0.4631310701370239,0.49601978063583374,-0.017318718135356903,-0.8681384921073914,-0.3396325409412384,0.7069702744483948,0.9926959872245789,0.28098310076816413,-0.24292418537196114,0.08317811986319856,0.9247257527085407
1705061555225042700,13.160042724609376,-0.027251295745372772,1.1520345211029053,-0.6585292816162109,0.5053572058677673,-0.014850213192403316,-0.8627824783325195,-0.3214125633239746,0.775302529335022,0.9632615447044373,0.28315361973405334,-0.24803989918260708,0.08417232409718498,0.9226132531131114
1705061555234961400,13.16996142578125,-0.19280773401260376,1.291826844215393,-0.8884255886077881,0.5158764719963074,-0.009971915744245052,-0.8566049337387085,-0.32002997398376465,0.8960651159286499,0.957175612449646,0.2860267924056285,-0.25410879967216143,0.08441706681012306,0.9200495311957722
1705061555244909600,13.17990966796875,-0.27746641635894775,1.4376094341278076,-1.1099220514297485,0.5275347232818604,-0.0027750106528401375,-0.8495289087295532,-0.3291400074958801,1.0225809812545776,0.9621082544326782,0.28973020330379756,-0.2611074336497107,0.08401454701475379,0.9169628099138522
1705061555254828500,13.18982861328125,-0.33946725726127625,1.5770164728164673,-1.3237920999526978,0.5401729345321655,0.006247490178793669,-0.8415308594703674,-0.3413509726524353,1.1194545030593872,0.9959802627563477,0.29422543968548726,-0.26890765048333026,0.08320605327742635,0.9133437236076545
1705061555264776400,13.1997763671875,-0.38680094480514526,1.7108525037765503,-1.5533344745635986,0.5536919832229614,0.017111942172050476,-0.8325456976890564,-0.349376916885376,1.1942375898361206,1.0268969535827637,0.29957066491051815,-0.27748730220044765,0.08202402087137622,0.9091371477156218
1705061555274695400,13.2096953125,-0.43364349007606506,1.8774259090423584,-1.7868655920028687,0.5680168271064758,0.029774824157357216,-0.822478175163269,-0.3281792402267456,1.250376582145691,1.0214985609054565,0.30579717498756753,-0.28683627169365294,0.08053489478543688,0.9042826712332306
1705061555284643300,13.219643310546875,-0.4895152747631073,2.0941977500915527,-2.0297296047210693,0.5834300518035889,0.044484756886959076,-0.8109441995620728,-0.27324944734573364,1.2756751775741577,0.9887853860855103,0.31288969109185627,-0.2972031407896614,0.07872854112200008,0.8986502210318662
1705061555294561300,13.229561279296876,-0.6201349496841431,2.318561315536499,-2.3017024993896484,0.5999321937561035,0.061543986201286316,-0.797680139541626,-0.1951318383216858,1.2682290077209473,0.9449732303619385,0.32081606986563194,-0.3087139764550851,0.07652193116241421,0.8921417807677018
1705061555304510700,13.2395107421875,-0.8465348482131958,2.497649669647217,-2.623417377471924,0.6171088814735413,0.08220682293176651,-0.7825717926025391,-0.11062401533126831,1.2524031400680542,0.8859653472900391,0.32963953826447573,-0.3214626847705638,0.07332013050158455,0.8846601897162444
1705061555314428700,13.2494287109375,-1.0215537548065186,2.692009687423706,-2.942192554473877,0.6343915462493896,0.10670188814401627,-0.7656121850013733,-0.01938605308532715,1.2684202194213867,0.7558618187904358,0.33936211178989295,-0.335313140416538,0.0689854589927161,0.876150307496781
1705061555324347400,13.259347412109374,-1.0807725191116333,2.9368550777435303,-3.229196071624756,0.651753842830658,0.13439998030662537,-0.7464271783828735,0.058588504791259766,1.3313592672348022,0.6125465631484985,0.34998053399840817,-0.35028449906276315,0.06393107141627678,0.8664451306588213
1705061555334295600,13.269295654296876,-0.8729655146598816,3.2402753829956055,-3.4472262859344482,0.6693816781044006,0.16368958353996277,-0.7246611714363098,0.12941581010818481,1.4315710067749023,0.43219590187072754,0.36157170976459474,-0.3662925658896185,0.059153767943666884,0.8553340902952498
1705061555344214500,13.279214599609375,-0.4402088224887848,3.519954204559326,-3.608452081680298,0.6870558857917786,0.19213825464248657,-0.700740396976471,0.19282686710357666,1.4968724250793457,0.23510318994522095,0.3742360333707268,-0.38274981556985205,0.05596755394674367,0.8428034242794823
1705061555354162400,13.289162353515625,0.11931018531322479,3.8051650524139404,-3.7352230548858643,0.7046111822128296,0.21876634657382965,-0.6750291585922241,0.28469234704971313,1.534056544303894,0.06428080797195435,0.38821039910217586,-0.39931585734939085,0.05506610649806799,0.8287383611473716
1705061555364081700,13.29908154296875,0.7195011973381042,3.994063377380371,-3.7933127880096436,0.7216333150863647,0.24268290400505066,-0.6483442783355713,0.4262089729309082,1.538139820098877,-0.05369734764099121,0.4033068790700207,-0.41545093975645786,0.05681877993227432,0.813336142617025
1705061555374029300,13.309029296875,1.3352866172790527,4.091770648956299,-3.87680983543396,0.7375252842903137,0.2639997899532318,-0.621579110622406,0.578255295753479,1.5317918062210083,-0.11827385425567627,0.4196410952511363,-0.4306623240504532,0.06115883919957393,0.7966749326780378
1705061555383947500,13.318947509765625,1.9368276596069336,4.117057800292969,-3.998741865158081,0.751627504825592,0.2832376956939697,-0.5956780910491943,0.7269948720932007,1.5326497554779053,-0.21676087379455566,0.4372711587043813,-0.4444939014679026,0.06772088233172063,0.7788663814055269
1705061555393896700,13.328896728515625,2.4492077827453613,4.018989562988281,-4.097550868988037,0.7635124921798706,0.3010457456111908,-0.5713319778442383,0.8796606659889221,1.5332286357879639,-0.38630974292755127,0.4562586987265251,-0.45666412840557835,0.0761044970644835,0.7599302775188713
1705061555403814700,13.338814697265626,2.8602068424224854,3.704406976699829,-4.148015022277832,0.77240389585495,0.3176964521408081,-0.5499645471572876,1.0908161401748657,1.486868977546692,-0.5670856833457947,0.47615287736234513,-0.4665885910278386,0.0855150219325247,0.7404461568740341
1705061555413763600,13.348763671875,3.1457679271698,3.269641876220703,-4.200151443481445,0.7776473760604858,0.33371877670288086,-0.5328190326690674,1.3197951316833496,1.3486390113830566,-0.6816127300262451,0.49680549791325584,-0.4738614431154356,0.09510944157372776,0.7208284056612349
1705061555423681500,13.358681640625,3.361107587814331,2.8575730323791504,-4.30894136428833,0.7792007923126221,0.34959354996681213,-0.5202213525772095,1.5062451362609863,1.1384892463684082,-0.7136958837509155,0.5179736456406612,-0.47856818908652293,0.10422005686389811,0.7012943332401935
1705061555433630500,13.36863037109375,3.5269782543182373,2.4784271717071533,-4.462904930114746,0.7772440910339355,0.3659024238586426,-0.51186603307724,1.6193315982818604,0.9235568046569824,-0.68686443567276,0.5398494656913093,-0.48103108901829805,0.11258807501564393,0.6815389796090807
1705061555443548400,13.37854833984375,3.6656477451324463,2.121133327484131,-4.624622344970703,0.7719864845275879,0.38271012902259827,-0.5075134038925171,1.7095197439193726,0.7741807103157043,-0.7374054789543152,0.5622594418484353,-0.4815042093339967,0.11998745187271749,0.6615293505359706
1705061555453497300,13.388497314453126,3.7908012866973877,1.6430350542068481,-4.738852024078369,0.7632522583007812,0.3997478783130646,-0.5075900554656982,1.8443527221679688,0.6591967940330505,-0.7910855412483215,0.5852295643230933,-0.479864644573957,0.12623345779741818,0.641327896100302
1705061555463415600,13.39841552734375,3.8521242141723633,1.10077702999115,-4.816284656524658,0.7507654428482056,0.4164644181728363,-0.5127462148666382,2.0036139488220215,0.5441221594810486,-0.8355967402458191,0.6084060599108917,-0.47592367670837804,0.13085693869950799,0.6214621929396666
1705061555473364500,13.408364501953125,3.9157726764678955,0.6196272373199463,-4.86196756362915,0.7339960336685181,0.4333690106868744,-0.5229158997535706,2.1219608783721924,0.4026447534561157,-0.8769407272338867,0.6319466463699793,-0.46985339538967413,0.13334103858706875,0.6017485577399415
1705061555483282700,13.41828271484375,3.866684913635254,0.23755624890327454,-4.946428298950195,0.7146813869476318,0.4481637477874756,-0.5370100140571594,2.1767218112945557,0.24298310279846191,-0.8130266666412354,0.655102382249532,-0.4618833660055624,0.13475440947560338,0.5825339790351475
1705061555493231600,13.428231689453124,3.7600386142730713,-0.0978008285164833,-5.3992486000061035,0.691697359085083,0.4636349380016327,-0.5537122488021851,2.2073655128479004,0.16066309809684753,-0.6626878976821899,0.6783702643463405,-0.45295263213729003,0.13408130863967518,0.5627341122949605
1705061555503149600,13.438149658203125,3.881697416305542,-0.4828726351261139,-5.891528606414795,0.6635985374450684,0.4803437292575836,-0.5735039114952087,2.2796998023986816,0.1772184669971466,-0.49288707971572876,0.7024769452326927,-0.44283542096067,0.13093826823915028,0.5415514207072886
1705061555513067500,13.448067626953126,4.017281532287598,-0.9741576313972473,-6.102047443389893,0.6300930380821228,0.4961498975753784,-0.5973423719406128,2.277087688446045,0.09457877278327942,-0.3107997179031372,0.7273813160061754,-0.4307442402685686,0.1256511643479112,0.5192181250761082
1705061555523016400,13.458016357421876,4.082972049713135,-1.434964895248413,-5.804200649261475,0.592806875705719,0.5078943371772766,-0.6249986290931702,2.183224678039551,-0.014409899711608887,-0.1714797019958496,0.7518217263366651,-0.41638355695887946,0.11885037717039706,0.49725581605518265
1705061555532934400,13.467934326171875,3.784735679626465,-1.5078575611114502,-5.243364334106445,0.5552442669868469,0.5142322182655334,-0.6536581516265869,2.0388412475585938,-0.10065805912017822,-0.06483256816864014,0.7740295288070268,-0.4009209901232325,0.11150470187551775,0.47718681107267563
1705061555542883300,13.47788330078125,3.347459554672241,-1.2651432752609253,-4.912349700927734,0.5200203061103821,0.5177397727966309,-0.6793558597564697,1.7862539291381836,-0.23520809412002563,-0.020412206649780273,0.7935405072033498,-0.38653778690562457,0.10445386633570712,0.45822629903265694
1705061555552801500,13.487801513671876,2.997497797012329,-1.1315484046936035,-4.5865983963012695,0.48749202489852905,0.5197672843933105,-0.7015649676322937,1.6264452934265137,-0.3649669885635376,0.0662805438041687,0.810685835707053,-0.37368446449524473,0.09786432868481407,0.4399668727580536
1705061555562750500,13.49775048828125,2.7639873027801514,-1.1911840438842773,-4.352673053741455,0.45622944831848145,0.5203860402107239,-0.7218400239944458,1.556206464767456,-0.43954503536224365,0.1231309175491333,0.8260417398490647,-0.3616216937125305,0.09115777191645907,0.4225814123675158
1705061555572668700,13.507668701171875,2.7496402263641357,-1.3146862983703613,-4.36503267288208,0.4247302711009979,0.5194745063781738,-0.741451621055603,1.5423870086669922,-0.42755556106567383,0.18088942766189575,0.8403505767922701,-0.3496075048402892,0.08395710494359573,0.4056312463265834
1705061555582617600,13.51761767578125,2.8242883682250977,-1.4462015628814697,-4.42534065246582,0.39170733094215393,0.5165081024169922,-0.7614359855651855,1.570511817932129,-0.39227110147476196,0.27403974533081055,0.8543447423217545,-0.3368809074854089,0.07611340115636214,0.38834665664078144
1705061555592535600,13.52753564453125,2.891437292098999,-1.5660381317138672,-4.412643909454346,0.35758769512176514,0.5110923051834106,-0.7816109657287598,1.5277118682861328,-0.4194938540458679,0.3690285086631775,0.867894313702907,-0.32341655572342404,0.06779568605511002,0.370897387789359
1705061555602484500,13.537484375,2.9740161895751953,-1.6576875448226929,-4.339944362640381,0.32274770736694336,0.5028374195098877,-0.8018655776977539,1.3964447975158691,-0.48837214708328247,0.4449319839477539,0.8809138105818515,-0.30914078965741243,0.05915390170301176,0.353445306597322
1705061555612402400,13.54740234375,3.0285303592681885,-1.6638147830963135,-4.2030768394470215,0.2882295250892639,0.49159881472587585,-0.821738600730896,1.2453550100326538,-0.547690212726593,0.5207589864730835,0.8931765315100014,-0.2942350053691475,0.0505615560407234,0.336310642832345
1705061555622351400,13.557351318359375,3.0153751373291016,-1.5947059392929077,-4.009200572967529,0.2548903226852417,0.47769373655319214,-0.840737521648407,1.1031113862991333,-0.5715353488922119,0.5894252061843872,0.9045740503256509,-0.2789971577108545,0.04233007788832036,0.3195533161593028
1705061555632269600,13.56726953125,2.9869775772094727,-1.54783296585083,-3.7456607818603516,0.22361111640930176,0.4616287350654602,-0.8584269881248474,0.9866854548454285,-0.57298743724823,0.6253642439842224,0.9149050757648359,-0.2637880653805947,0.034674891156970575,0.3035820554482729
1705061555642218500,13.577218505859374,2.9514102935791016,-1.619933009147644,-3.4414610862731934,0.19382765889167786,0.4434700608253479,-0.8750800490379333,0.8908891081809998,-0.5765572786331177,0.6483039259910583,0.9242280984983774,-0.24842875558895322,0.02726035148645191,0.2886906026236624
1705061555652136400,13.587136474609375,2.9260427951812744,-1.754156470298767,-3.1366381645202637,0.16487154364585876,0.4236289858818054,-0.8907052278518677,0.8075863122940063,-0.5761711597442627,0.6615639925003052,0.9325270010389726,-0.2329402933201174,0.019651996620516296,0.2752196762369112
1705061555662085600,13.597085693359375,2.9278743267059326,-1.8160606622695923,-2.7820374965667725,0.13668346405029297,0.40190818905830383,-0.9054211378097534,0.7141923904418945,-0.5816110372543335,0.6800182461738586,0.9399133875531275,-0.21713509786928256,0.011907702252361754,0.2631980096845298
1705061555672003600,13.607003662109374,2.8429179191589355,-1.792072057723999,-2.414181709289551,0.11026661843061447,0.3788895606994629,-0.9188492894172668,0.5951777100563049,-0.5876451730728149,0.7242539525032043,0.9463140703087224,-0.20138389185092284,0.004460335953073979,0.2528128257962271
1705061555681952500,13.616952392578124,2.6438238620758057,-1.7289657592773438,-2.106055736541748,0.08584080636501312,0.3558003008365631,-0.9306113719940186,0.4813131093978882,-0.5720632076263428,0.7662436962127686,0.9517591677713689,-0.1862456729097226,-0.002621013264204432,0.2438444676107442
1705061555691870500,13.626870361328125,2.40527606010437,-1.6547801494598389,-1.8130205869674683,0.06340724229812622,0.3338265120983124,-0.9404995441436768,0.3981558382511139,-0.5476632118225098,0.8080379366874695,0.9562875259265353,-0.17222751264108094,-0.00937667314579936,0.23614355680060206
1705061555701788400,13.636788330078126,2.2088465690612793,-1.5596059560775757,-1.5063825845718384,0.04303155466914177,0.3131265938282013,-0.9487360119819641,0.33576786518096924,-0.5421916246414185,0.8546350598335266,0.9599996515777379,-0.1593270514828396,-0.015712470152772533,0.22971455508356767
1705061555711737300,13.6467373046875,2.099370241165161,-1.4560593366622925,-1.1878454685211182,0.024651581421494484,0.29327183961868286,-0.9557112455368042,0.2830113470554352,-0.5348185300827026,0.8989027738571167,0.9630170795607719,-0.1472420722207017,-0.021544382377630795,0.22461921794129988
1705061555721655600,13.656655517578125,2.1023330688476562,-1.367820382118225,-0.8987869024276733,0.00834127701818943,0.27350345253944397,-0.9618348479270935,0.24506141245365143,-0.5143177509307861,0.936032235622406,0.9654680315499371,-0.13553704495000418,-0.026688675488830752,0.22088205818921566
1705061555731604500,13.6666044921875,2.119506597518921,-1.3504475355148315,-0.6189342737197876,-0.006653591990470886,0.2532788813114166,-0.9673704504966736,0.2225959599018097,-0.490461528301239,0.9806760549545288,0.9674602606610387,-0.12381196608051724,-0.03139083861835071,0.21841663393992328
1705061555741522400,13.6765224609375,2.1353185176849365,-1.358161211013794,-0.3215092122554779,-0.02082250453531742,0.23275478184223175,-0.9723125100135803,0.19198033213615417,-0.46127045154571533,1.0378031730651855,0.9689904955040348,-0.11205766596672587,-0.03587229890286857,0.21728691073690523
1705061555751471600,13.6864716796875,2.12267804145813,-1.343511700630188,0.0036108149215579033,-0.034301601350307465,0.21207882463932037,-0.9766503572463989,0.15705855190753937,-0.44659119844436646,1.0814783573150635,0.9700313671913887,-0.1002999737190473,-0.04018364179701889,0.2176330842361044
1705061555761389600,13.6963896484375,2.085664749145508,-1.2593797445297241,0.30749720335006714,-0.046650610864162445,0.1917140632867813,-0.9803414940834045,0.12064046412706375,-0.4443691372871399,1.1197152137756348,0.9705722038602304,-0.08879008499033991,-0.044108688732306084,0.21945426154686332
1705061555771338500,13.70633837890625,1.9884270429611206,-1.097840666770935,0.5016717314720154,-0.057419221848249435,0.1720038503408432,-0.9834214448928833,0.08743324875831604,-0.44480055570602417,1.1527940034866333,0.9706933703507925,-0.07774068578149845,-0.04738851328393411,0.22240740672700746
1705061555781256400,13.71625634765625,1.7698038816452026,-0.8818638324737549,0.5776216387748718,-0.06618745625019073,0.15396162867546082,-0.9858574867248535,0.05988556891679764,-0.4321904182434082,1.169863224029541,0.970526921021712,-0.06771671986545123,-0.04985668648371473,0.22584566174309895
1705061555791205400,13.726205322265624,1.4244754314422607,-0.5948122143745422,0.6134927868843079,-0.07259467989206314,0.13861392438411713,-0.9876822233200073,0.03429510444402695,-0.3891785740852356,1.1650351285934448,0.9701725223606402,-0.059279622061985456,-0.05142772182493434,0.22936083117071776
1705061555801123600,13.73612353515625,0.9380155801773071,-0.29946789145469666,0.7172452807426453,-0.07606645673513412,0.12744063138961792,-0.988925039768219,0.011491246521472931,-0.3356621265411377,1.1491880416870117,0.969633609858351,-0.05321961678329381,-0.05201097590719765,0.2329660032137246
1705061555811071500,13.746071533203125,0.3757549226284027,-0.05970558524131775,0.8851203322410583,-0.07680539786815643,0.12156644463539124,-0.9896072745323181,-0.0020978152751922607,-0.2951657176017761,1.124403476715088,0.9688251149662056,-0.05004591231809863,-0.05188233068774581,0.23702648989672473
1705061555820990500,13.755990478515624,-0.14357291162014008,0.11815815418958664,1.068662166595459,-0.07531282305717468,0.12121258676052094,-0.9897653460502625,-0.005680836737155914,-0.2752653658390045,1.0846445560455322,0.96769958196087,-0.049800315464764,-0.05135410248195662,0.24174408723588273
1705061555830938600,13.765938720703126,-0.5863063931465149,0.2671809196472168,1.199880838394165,-0.07199182361364365,0.1256898194551468,-0.9894540309906006,0.0020150020718574524,-0.25751054286956787,1.056028127670288,0.9662717248456267,-0.05210633040446811,-0.05057591221320994,0.24707483860738053
1705061555840857600,13.775857666015625,-0.9105430245399475,0.3873611092567444,1.2495547533035278,-0.06719057261943817,0.13397343456745148,-0.98870450258255,0.012197881937026978,-0.22262704372406006,1.0446431636810303,0.9646257485192794,-0.05644690067565992,-0.04961358203713603,0.2526844439327817
1705061555850805500,13.785805419921875,-1.0977483987808228,0.5423551797866821,1.2394789457321167,-0.060923751443624496,0.14473222196102142,-0.9875934720039368,0.014445465058088303,-0.161455899477005,1.030775785446167,0.9628567984073302,-0.062196616370781055,-0.048320190970450067,0.25827044509435343
1705061555860724500,13.795724365234374,-1.1928184032440186,0.7574533820152283,1.226083755493164,-0.052745271474123,0.15667980909347534,-0.986240029335022,0.009150896221399307,-0.07110857963562012,1.0024906396865845,0.9610412204116067,-0.06880771876832847,-0.04631943041843498,0.2636658459723353
1705061555870672400,13.80567236328125,-1.2210134267807007,0.9843106269836426,1.2619520425796509,-0.042203132063150406,0.16914324462413788,-0.9846875071525574,-0.005526375025510788,0.04612770676612854,0.9675213694572449,0.9591602849390437,-0.07602371399589218,-0.04332030884046768,0.26898913586947887
1705061555880591400,13.81559130859375,-1.1091848611831665,1.2249072790145874,1.4364879131317139,-0.02910282090306282,0.1810777187347412,-0.983038067817688,-0.013179302215576172,0.1700269728899002,0.890173077583313,0.9571155477050446,-0.08336620752050307,-0.03912839061208803,0.2746794118053517
1705061555890509600,13.825509521484374,-0.8869858384132385,1.412532091140747,1.6443957090377808,-0.013333437032997608,0.19112588465213776,-0.9814749956130981,-0.018572714179754257,0.25559037923812866,0.8265371918678284,0.9547936652498574,-0.0902033435941158,-0.033554040495920257,0.28125860524979174
1705061555900457700,13.835457763671876,-0.7699710726737976,1.50839102268219,1.69576895236969,0.004266306757926941,0.19921500980854034,-0.979946494102478,-0.013940401375293732,0.3059118986129761,0.775692343711853,0.9522520560686383,-0.0964336346215757,-0.02696843152093352,0.28842527657140593
1705061555910376400,13.84537646484375,-0.7462198734283447,1.5229960680007935,1.5868734121322632,0.022325528785586357,0.20631156861782074,-0.9782316088676453,-0.000001944601535797119,0.3493677079677582,0.6614896655082703,0.949670868551874,-0.10237541927000622,-0.02008636950048137,0.2953658622241694
1705061555920324600,13.85532470703125,-0.8307217359542847,1.5176206827163696,1.3620953559875488,0.04019198566675186,0.21343107521533966,-0.976131021976471,0.02194177731871605,0.35106778144836426,0.47721439599990845,0.9471855232950811,-0.10843253215200482,-0.013299342354742937,0.3015048712512308
1705061555930243600,13.86524365234375,-1.1476109027862549,1.505828857421875,0.9863630533218384,0.05737927183508873,0.22223016619682312,-0.9733043313026428,0.05181259289383888,0.3675982654094696,0.2302471399307251,0.9449490220855193,-0.11532050096552583,-0.00700028288301453,0.30614284308257766
1705061555940191500,13.87519140625,-1.7166941165924072,1.515562653541565,0.7047292590141296,0.07383622229099274,0.2354554980993271,-0.9690763354301453,0.10211285203695297,0.47514626383781433,-0.11757832765579224,0.9428602754242046,-0.12433525589528265,-0.0016077293952610839,0.3091156510757371
1705061555950110500,13.8851103515625,-2.192397356033325,1.4635015726089478,0.6931687593460083,0.0898771733045578,0.2538030743598938,-0.9630711674690247,0.1366547793149948,0.6123772859573364,-0.45790356397628784,0.9405320201710063,-0.13585480661236773,0.002808031851191081,0.3113437355469063
1705061555960058400,13.895058349609375,-2.355424642562866,1.2539888620376587,0.7925930619239807,0.10489653795957565,0.27495279908180237,-0.9557183980941772,0.14081570506095886,0.693598747253418,-0.6893621683120728,0.9377209294114885,-0.14867014695292705,0.006163289638951543,0.31390849921085645
1705061555969977600,13.9049775390625,-2.2535884380340576,0.9483264088630676,0.7513108253479004,0.11753766238689423,0.2959708869457245,-0.9479378461837769,0.1301124393939972,0.7665901184082031,-0.8463584184646606,0.9346789598609626,-0.16112955209217467,0.008267677270868927,0.3167712423080674
1705061555979925500,13.914925537109376,-1.9568068981170654,0.6545454263687134,0.6176673173904419,0.12713411450386047,0.31500402092933655,-0.9405367374420166,0.12605494260787964,0.8589003086090088,-0.9569089412689209,0.9318040087264846,-0.17218293921159727,0.009201115415020701,0.3193895078884345
1705061555989843700,13.92484375,-1.5545724630355835,0.4012565612792969,0.45578572154045105,0.1337691843509674,0.33066168427467346,-0.9342208504676819,0.1031692624092102,0.8956413269042969,-1.0465683937072754,0.9293853680377793,-0.18111533664998475,0.009316420220499028,0.32148600863761356
1705061555999792600,13.934792724609375,-1.1499496698379517,0.11629592627286911,0.3204108476638794,0.13748390972614288,0.3426903784275055,-0.9293338656425476,0.07597126066684723,0.8777990341186523,-1.1471583843231201,0.9275173788310798,-0.18776900486846734,0.00870945992914321,0.3230766236087961
1705061556009710600,13.944710693359376,-0.7302237153053284,-0.19453217089176178,0.2899762690067291,0.13814567029476166,0.35094961524009705,-0.926147997379303,0.053275808691978455,0.8197351694107056,-1.2897486686706543,0.9261529281270092,-0.1920228181245168,0.007295935927878687,0.3245222779932612
1705061556019659500,13.954659423828126,-0.3336732089519501,-0.4433332085609436,0.28474128246307373,0.1361866295337677,0.355415403842926,-0.9247340559959412,0.025663316249847412,0.6786116361618042,-1.401041030883789,0.9251850758866104,-0.1939216901864935,0.005229328482909412,0.32618949471239234
1705061556029577500,13.964577392578125,-0.018587499856948853,-0.5823221206665039,0.21464715898036957,0.13232938945293427,0.3566889762878418,-0.9248037338256836,-0.020802944898605347,0.5033420920372009,-1.4263315200805664,0.9246149627591046,-0.19388202399745819,0.0028113971222390325,0.32785522894821917
1705061556039526400,13.9745263671875,0.224742591381073,-0.6453114748001099,0.09929899126291275,0.1272210329771042,0.35552728176116943,-0.9259671568870544,-0.08213134109973907,0.3636041283607483,-1.3757905960083008,0.9244585336584085,-0.19239628660528124,0.0002999919866656732,0.3291809084227511
1705061556049444400,13.9844443359375,0.3729894161224365,-0.6672780513763428,-0.006806939374655485,0.12131546437740326,0.35275331139564514,-0.927818775177002,-0.14492084085941315,0.2766716778278351,-1.2583537101745605,0.9246693319849808,-0.18996264689227482,-0.0021940554952146665,0.32999387341591796
1705061556059363600,13.994363525390625,0.4788364768028259,-0.6970892548561096,0.001417434774339199,0.11503573507070541,0.3489101827144623,-0.930069088935852,-0.1718900203704834,0.23765286803245544,-1.130126953125,0.9250656392621353,-0.18693331619419676,-0.004626620128470763,0.33058737109687375
1705061556069311700,14.004311767578125,0.5468324422836304,-0.7548157572746277,0.10776598006486893,0.10854635387659073,0.34450024366378784,-0.932489812374115,-0.1698409467935562,0.19134259223937988,-1.0063071250915527,0.9253995209204645,-0.18358783519899405,-0.0071136009814227585,0.33148220372652853
1705061556079260000,14.014260009765625,0.6195516586303711,-0.8269099593162537,0.22651472687721252,0.10180743038654327,0.3389556109905243,-0.9352776408195496,-0.13462913036346436,0.15387266874313354,-0.8993780612945557,0.9256117366754948,-0.17963422757600814,-0.00962872708022389,0.3329887569519853
1705061556089208800,14.024208740234375,0.6621723771095276,-0.9228104948997498,0.27270007133483887,0.0945424810051918,0.332756906747818,-0.9382614493370056,-0.07810879498720169,0.13242247700691223,-0.7913528084754944,0.9257057400857094,-0.17526177121848924,-0.012352532334945036,0.3349620914442821
1705061556099126800,14.034126708984376,0.6755598187446594,-1.048850178718567,0.28918078541755676,0.08630243688821793,0.3262856602668762,-0.9413232803344727,-0.018599219620227814,0.1180959939956665,-0.6816320419311523,0.925740150574472,-0.17058066112538167,-0.015511024073255896,0.33714487171012214
1705061556109075700,14.04407568359375,0.6666544675827026,-1.1787991523742676,0.329435259103775,0.07683245092630386,0.31975337862968445,-0.944380521774292,0.022258080542087555,0.09131833910942078,-0.565934419631958,0.9256885857187724,-0.1656466762313737,-0.01925945081475146,0.33954486336661416
1705061556118994000,14.053993896484375,0.6540337204933167,-1.268924355506897,0.39999622106552124,0.06645011156797409,0.3133332133293152,-0.947315514087677,0.039781540632247925,0.07387372851371765,-0.455577552318573,0.9254784552737019,-0.16059387273570158,-0.02349167034057066,0.3422676586000793
1705061556128942800,14.06394287109375,0.6470649838447571,-1.3101918697357178,0.475434809923172,0.055607423186302185,0.30693382024765015,-0.9501049518585205,0.04038558527827263,0.08208894729614258,-0.3495166301727295,0.9250758574220083,-0.1554494752614516,-0.02798186125855775,0.3453794576605312
1705061556138861000,14.073861083984376,0.6091343760490417,-1.325864553451538,0.5520816445350647,0.04470507800579071,0.30075883865356445,-0.952651858329773,0.0424378328025341,0.10816138982772827,-0.24362194538116455,0.924474704023667,-0.15037897847536835,-0.03256121332285404,0.3488157559279033
1705061556148810000,14.08381005859375,0.5626626014709473,-1.3450148105621338,0.6535726189613342,0.033819779753685,0.29498082399368286,-0.9549044370651245,0.047997813671827316,0.12155354022979736,-0.1481991410255432,0.9236205531126778,-0.14546883042416986,-0.03723694294957728,0.35267139382269747
1705061556158728000,14.09372802734375,0.5179142951965332,-1.3934286832809448,0.724360466003418,0.02286642976105213,0.28966858983039856,-0.9568538069725037,0.05477026104927063,0.09900325536727905,-0.05530744791030884,0.9225152378849224,-0.14072855025083342,-0.042054303596625535,0.3569208253251325
1705061556168676900,14.1036767578125,0.4643261730670929,-1.4392346143722534,0.7623286247253418,0.011477679945528507,0.2848687767982483,-0.9584978222846985,0.06959223747253418,0.07980096340179443,0.035966694355010986,0.921212725877616,-0.13611087655891643,-0.047169105543666955,0.3614084441993253
1705061556178594800,14.1135947265625,0.41286855936050415,-1.4695035219192505,0.7970647811889648,-0.00019463505304884166,0.2806745171546936,-0.9598029851913452,0.08184438198804855,0.06869068741798401,0.12064588069915771,0.9197364109686048,-0.13168432402613486,-0.05251422476860119,0.3660414969235305
1705061556188543700,14.123543701171876,0.34824734926223755,-1.4762635231018066,0.8388651609420776,-0.011998492293059826,0.27708932757377625,-0.9607692360877991,0.08490495383739471,0.04949450492858887,0.20016437768936157,0.9180745548190562,-0.1274699365101945,-0.05802407950131332,0.37084183296702644
1705061556198461700,14.133461669921875,0.28467556834220886,-1.4656721353530884,0.8674323558807373,-0.023685486987233162,0.27424710988998413,-0.9613675475120544,0.08230972290039062,0.03224089741706848,0.26829802989959717,0.9162425830989338,-0.12357561084460149,-0.06360270183376333,0.3757437229575392
1705061556208411000,14.143410888671875,0.21368515491485596,-1.4367578029632568,0.8824403882026672,-0.0351906456053257,0.2721363604068756,-0.9616150259971619,0.08066180348396301,0.012989312410354614,0.3313506841659546,0.9142670270996264,-0.12000756255034772,-0.06921475037065299,0.3806880214247981
1705061556218328800,14.153328857421876,0.13321775197982788,-1.390952467918396,0.8928829431533813,-0.04627808928489685,0.27086690068244934,-0.9615037441253662,0.08123595267534256,-0.0029683709144592285,0.3777787685394287,0.9121767501205583,-0.1168663331913318,-0.07476886813311837,0.3855976052542867
1705061556228278000,14.163278076171874,0.06567689776420593,-1.3377113342285156,0.9035837650299072,-0.05690445378422737,0.2704014778137207,-0.9610644578933716,0.08266125619411469,-0.02900746464729309,0.4236956834793091,0.9099748265921705,-0.1141411856239263,-0.08024680994109842,0.39048438649998535
1705061556238196000,14.173196044921875,-0.0005045216530561447,-1.2789745330810547,0.9180814623832703,-0.066926971077919,0.27068111300468445,-0.9603397846221924,0.08926581591367722,-0.057332783937454224,0.4698154926300049,0.9076756600132425,-0.11183352796023475,-0.08557669565527103,0.39534117076229913
1705061556248114000,14.183114013671876,-0.07714565843343735,-1.23258376121521,0.9266408681869507,-0.07638666778802872,0.2717309892177582,-0.9593369364738464,0.09616202861070633,-0.08694711327552795,0.5154435038566589,0.9052856585885537,-0.10994915706008808,-0.09078942103503702,0.4001579258151972
1705061556258062800,14.193062744140626,-0.15664607286453247,-1.1803858280181885,0.9378858208656311,-0.08535351604223251,0.2736285924911499,-0.9580407738685608,0.10352670401334763,-0.10967296361923218,0.5520043969154358,0.9027922967502715,-0.10850934552248219,-0.09594439510856975,0.40495224166081367
1705061556267980800,14.202980712890625,-0.22172951698303223,-1.1125202178955078,0.9564056992530823,-0.09369170665740967,0.27628788352012634,-0.9564971923828125,0.10966764390468597,-0.13596808910369873,0.583251953125,0.9002173904785415,-0.10750504398021492,-0.10096570006066757,0.4097037893043196
1705061556277929700,14.2129296875,-0.29836517572402954,-1.0131577253341675,0.9919685125350952,-0.10107695311307907,0.2797544598579407,-0.954736053943634,0.11853298544883728,-0.15821826457977295,0.6074306964874268,0.8975357575017604,-0.10701946028200617,-0.10572994317645054,0.41448470416986943
1705061556287848000,14.222847900390626,-0.3640059232711792,-0.9241505265235901,1.03392493724823,-0.10737632215023041,0.2840379476547241,-0.9527815580368042,0.1261903941631317,-0.17905756831169128,0.6379775404930115,0.8947404404641077,-0.10708576198815432,-0.11019004461238736,0.41932117300426264
1705061556297796900,14.232796875,-0.41898342967033386,-0.828286349773407,1.1061339378356934,-0.11255896836519241,0.28919389843940735,-0.9506299495697021,0.13347874581813812,-0.20174583792686462,0.6533125042915344,0.891777746738561,-0.10772710040508339,-0.11436731296675147,0.42431977621645234
1705061556307714800,14.24271484375,-0.4769895374774933,-0.7194030284881592,1.1870650053024292,-0.11646704375743866,0.2948512136936188,-0.9484187960624695,0.13915684819221497,-0.23299217224121094,0.678322970867157,0.8886508439370312,-0.10880205856035105,-0.1181216551428261,0.4295450567137219
1705061556317664000,14.2526640625,-0.5732316374778748,-0.625124990940094,1.245883584022522,-0.11916404962539673,0.30123940110206604,-0.9460733532905579,0.14797261357307434,-0.2626499831676483,0.7088449597358704,0.8853434566828904,-0.11041049170987094,-0.12154364146723397,0.434975365560761
1705061556327582000,14.26258203125,-0.6968249678611755,-0.5144403576850891,1.3254172801971436,-0.1206279769539833,0.3087444603443146,-0.9434647560119629,0.16413074731826782,-0.27874574065208435,0.7125535011291504,0.8818562292723203,-0.1127515340185056,-0.1247185397937245,0.44052466122108574
1705061556337531000,14.27253076171875,-0.8066185712814331,-0.3677409291267395,1.443427324295044,-0.12045837938785553,0.31749388575553894,-0.9405782222747803,0.18492674827575684,-0.3030438721179962,0.7051351070404053,0.8780972495319483,-0.11595673516111354,-0.12753400043964622,0.4463567067448335
1705061556347448800,14.28244873046875,-0.9090740084648132,-0.23640374839305878,1.5241631269454956,-0.1184685081243515,0.3272581100463867,-0.9374792575836182,0.2041008174419403,-0.3465147614479065,0.7176764011383057,0.8740858939003391,-0.1199756488540173,-0.129870021286993,0.4524526405400587
1705061556357397800,14.292397705078125,-1.0403449535369873,-0.13700631260871887,1.5354442596435547,-0.11510294675827026,0.33810389041900635,-0.9340434074401855,0.22748391330242157,-0.38261380791664124,0.741919994354248,0.8699012320796179,-0.12478177049087318,-0.13193866407964525,0.45857765800072847
1705061556367315700,14.302315673828126,-1.2071311473846436,-0.014033585786819458,1.5479285717010498,-0.11058928817510605,0.35021865367889404,-0.930116593837738,0.25321316719055176,-0.39741411805152893,0.7449817061424255,0.8656134378444382,-0.13045007165273562,-0.1338823009755095,0.4645123882124628
1705061556377265000,14.312264892578124,-1.335248589515686,0.16697454452514648,1.6029452085494995,-0.10430063307285309,0.363687664270401,-0.9256633520126343,0.2723456621170044,-0.4148656725883484,0.7514690160751343,0.8611541068414666,-0.13716393622051112,-0.13547832667429408,0.47036709019637507
1705061556387182800,14.322182861328125,-1.4313424825668335,0.3161843419075012,1.7009592056274414,-0.095988929271698,0.377987802028656,-0.9208210110664368,0.2858082354068756,-0.4432039260864258,0.8020923733711243,0.8564929657800415,-0.1447441230713838,-0.13652338298185757,0.4762670221181245
1705061556397132000,14.332132080078125,-1.549432396888733,0.41930779814720154,1.9003937244415283,-0.08567039668560028,0.3932383358478546,-0.9154366254806519,0.2900465726852417,-0.468799889087677,0.8508156538009644,0.8513651029166053,-0.15320029858421513,-0.13715450329765444,0.4825927852082504
1705061556407050000,14.342050048828124,-1.677939772605896,0.5022302865982056,2.220668077468872,-0.0733228474855423,0.40946391224861145,-0.9093750715255737,0.2886548638343811,-0.5021306276321411,0.8835724592208862,0.845463727557701,-0.16250094289069852,-0.137498707755186,0.48977406769373955
1705061556416968000,14.351968017578125,-1.8036319017410278,0.6613906025886536,2.60640549659729,-0.058149632066488266,0.42672988772392273,-0.9025077223777771,0.2862074673175812,-0.5808436870574951,0.9121512770652771,0.8384819865439431,-0.17284307093188406,-0.13737322716245268,0.4981985067366789
1705061556426916900,14.361916748046875,-1.85145902633667,0.9567326307296753,2.761590003967285,-0.039254967123270035,0.4444024860858917,-0.894966721534729,0.30010393261909485,-0.7027949094772339,0.930092453956604,0.8306321969279723,-0.1842850524645237,-0.13621914088593046,0.5074775177313017
1705061556436834800,14.371834716796876,-1.992582082748413,1.353062629699707,2.5727102756500244,-0.016992997378110886,0.46206048130989075,-0.8866856098175049,0.3504127562046051,-0.7890716195106506,0.9367344379425049,0.822779359290882,-0.19685496185554974,-0.13381076287080507,0.5161172155087004
1705061556446783700,14.38178369140625,-2.271420955657959,1.7254692316055298,2.298462390899658,0.007936340756714344,0.4807986319065094,-0.8767951130867004,0.41543400287628174,-0.7805576324462891,0.9167121052742004,0.8153659656254949,-0.21109278268160978,-0.13054607201010934,0.5230448579201833
1705061556456702000,14.391701904296875,-2.602513313293457,1.9940322637557983,2.4119679927825928,0.035361867398023605,0.5014147162437439,-0.8644841313362122,0.4750140905380249,-0.7490496635437012,0.8299687504768372,0.8078447985473891,-0.22728249079706522,-0.12688814881282526,0.5287994908736269
1705061556466651000,14.40165087890625,-2.6689884662628174,2.2111825942993164,3.036342144012451,0.06706322729587555,0.5226940512657166,-0.8498784899711609,0.5085440278053284,-0.8092694282531738,0.7026006579399109,0.798879626785003,-0.24514048662478843,-0.12233925893660437,0.5354723568843786
1705061556476568800,14.41156884765625,-2.5677833557128906,2.5060970783233643,3.82296085357666,0.10485062003135681,0.5416291356086731,-0.8340528607368469,0.5327531099319458,-0.9465669989585876,0.5693281292915344,0.7877787213214086,-0.26377125546970853,-0.11575103161753676,0.5444547349537913
1705061556486518000,14.42151806640625,-2.6226978302001953,2.8497064113616943,4.447877407073975,0.14954929053783417,0.5575655102729797,-0.8165510892868042,0.5782948732376099,-1.0037935972213745,0.4305189847946167,0.7743965401093756,-0.2834228813078453,-0.10675165403633916,0.5555047537092082
1705061556496436000,14.43143603515625,-2.8465821743011475,3.219975233078003,4.82317590713501,0.19983692467212677,0.5713276267051697,-0.7960212826728821,0.6389844417572021,-0.9595876336097717,0.3169716000556946,0.7589982064418422,-0.3045745306038678,-0.09604015223972805,0.5673907428116611
1705061556506384000,14.4413837890625,-3.163834810256958,3.626816987991333,5.092504978179932,0.25501057505607605,0.5834954380989075,-0.7710399627685547,0.7181186676025391,-0.9062951803207397,0.1990032196044922,0.7416743871746413,-0.32775003004488756,-0.08402340335410481,0.5791709201405132
1705061556516302800,14.451302734375,-3.564373731613159,3.921112537384033,5.397576808929443,0.3140716850757599,0.5938884615898132,-0.7407127618789673,0.7986754179000854,-0.8863232135772705,0.18280565738677979,0.7222528764789415,-0.3529597266140906,-0.0711550152809085,0.5905142631857773
1705061556526250800,14.461250732421876,-4.02712345123291,3.8939120769500732,5.740387439727783,0.37542831897735596,0.6020340919494629,-0.7047045230865479,0.9054554104804993,-0.9063555002212524,0.25363945960998535,0.7001099621664038,-0.37979236928560267,-0.05835648891516199,0.6018291475658903
1705061556536169700,14.471169677734375,-4.563814640045166,3.6619133949279785,6.169771194458008,0.43685299158096313,0.6071770191192627,-0.6636983752250671,1.0891021490097046,-0.9191277623176575,0.23427021503448486,0.674761308850607,-0.40738593278955737,-0.04677096325636899,0.6136336941232979
